init_variables.started,init_variables.stopped,participant,session,date,expName,psychopyVersion,OS,frameRate,study_id,instruction_exp.started,instruction_exp.stopped,key_resp_8.keys,key_resp_8.rt,key_resp_8.duration,instruction_single.started,instruction_single.stopped,key_resp_2.keys,key_resp_2.rt,key_resp_2.duration,interval.started,interval.stopped,cue_single.started,cue_single.stopped,mask.started,mask.stopped,ori_response_single.started,res_ori,res,ori_response_single.stopped,key_resp_single.keys,key_resp_single.rt,key_resp_single.duration,disp_single.started,disp_single.stopped,key_resp.keys,key_resp.rt,key_resp.duration,single.thisRepN,single.thisTrialN,single.thisN,single.thisIndex,single.ran,ori,path,mask_path,instruction_bandit.started,instruction_bandit.stopped,key_resp_6.keys,key_resp_6.rt,key_resp_6.duration,cue_bandit.started,cue_bandit.stopped,bandit_res.keys,bandit_res.rt,bandit_res.duration,outcome_bandit.started,rew,action,outcome_bandit.stopped,bandit.thisRepN,bandit.thisTrialN,bandit.thisN,bandit.thisIndex,bandit.ran,actual_rew1,actual_rew2,rew1,rew2,instruction_task.started,instruction_task.stopped,key_resp_7.keys,key_resp_7.rt,key_resp_7.duration,wait_ready.started,wait_ready.stopped,key_resp_3.keys,key_resp_3.rt,key_resp_3.duration,cue.started,cue.stopped,ori_response.started,ori_response.stopped,key_resp_5.keys,key_resp_5.rt,key_resp_5.duration,outcome.started,diff1,diff2,outcome.stopped,disp_outcome_practice.started,disp_outcome_practice.stopped,key_resp_4.keys,key_resp_4.rt,key_resp_4.duration,trials.thisRepN,trials.thisTrialN,trials.thisN,trials.thisIndex,trials.ran,ori1,ori2,break_blk.started,break_blk.stopped,block.thisRepN,block.thisTrialN,block.thisN,block.thisIndex,block.ran,condition_file
0.0004,0.0005,60871d7dcbf3bd9bf2c40be8,65af559cac09f8926668b570,2024-01-23_07h59.48.104,bars,2023.2.3,Win32,59.88023952,657b66ea316d21385b68909f,,,,,,,,,,,,,,,,,,,,,,,,,,,,,,,,,,,,,,,,,,,,,,,,,,,,,,,,,,,,,,,,,,,,,,,,,,,,,,,,,,,,,,,,,,,,,,,,,,,,
,,60871d7dcbf3bd9bf2c40be8,65af559cac09f8926668b570,2024-01-23_07h59.48.104,bars,2023.2.3,Win32,59.88023952,657b66ea316d21385b68909f,0.0006,11.0725,y,11.051,,,,,,,,,,,,,,,,,,,,,,,,,,,,,,,,,,,,,,,,,,,,,,,,,,,,,,,,,,,,,,,,,,,,,,,,,,,,,,,,,,,,,,,,,,,,,,,,
,,60871d7dcbf3bd9bf2c40be8,65af559cac09f8926668b570,2024-01-23_07h59.48.104,bars,2023.2.3,Win32,59.88023952,657b66ea316d21385b68909f,,,,,,11.0727,13.8271,space,2.7356,,,,,,,,,,,,,,,,,,,,,,,,,,,,,,,,,,,,,,,,,,,,,,,,,,,,,,,,,,,,,,,,,,,,,,,,,,,,,,,,,,,,,,,,,,,
,,60871d7dcbf3bd9bf2c40be8,65af559cac09f8926668b570,2024-01-23_07h59.48.104,bars,2023.2.3,Win32,59.88023952,657b66ea316d21385b68909f,,,,,,,,,,,13.8294,14.8284,14.8285,15.328,15.3281,15.5784,15.5786,0,0,39.5858,space,23.9825,,39.5859,54.9015,space,15.2986,,0,0,0,5,1,55,bars/single005.png,bars/mask008.png,,,,,,,,,,,,,,,,,,,,,,,,,,,,,,,,,,,,,,,,,,,,,,,,,,,,,,,,,,,,,,,,
,,60871d7dcbf3bd9bf2c40be8,65af559cac09f8926668b570,2024-01-23_07h59.48.104,bars,2023.2.3,Win32,59.88023952,657b66ea316d21385b68909f,,,,,,,,,,,54.9064,55.9015,55.9016,56.4029,56.4029,56.6533,56.6534,0,180,83.1965,space,26.5269,,83.1965,94.8581,space,11.6461,,0,1,1,3,1,20,bars/single003.png,bars/mask005.png,,,,,,,,,,,,,,,,,,,,,,,,,,,,,,,,,,,,,,,,,,,,,,,,,,,,,,,,,,,,,,,,
,,60871d7dcbf3bd9bf2c40be8,65af559cac09f8926668b570,2024-01-23_07h59.48.104,bars,2023.2.3,Win32,59.88023952,657b66ea316d21385b68909f,,,,,,,,,,,94.8632,95.8586,95.8587,96.3594,96.3595,96.6098,96.61,47,47,109.5562,space,12.9305,,109.5562,112.3258,space,2.754,,0,2,2,7,1,45,bars/single007.png,bars/mask009.png,,,,,,,,,,,,,,,,,,,,,,,,,,,,,,,,,,,,,,,,,,,,,,,,,,,,,,,,,,,,,,,,
,,60871d7dcbf3bd9bf2c40be8,65af559cac09f8926668b570,2024-01-23_07h59.48.104,bars,2023.2.3,Win32,59.88023952,657b66ea316d21385b68909f,,,,,,,,,,,112.3259,113.3261,113.3261,113.8274,113.8274,114.0773,114.0773,35,35,121.5675,space,7.4737,,121.5675,125.8379,space,4.2545,,0,3,3,0,1,150,bars/single000.png,bars/mask006.png,,,,,,,,,,,,,,,,,,,,,,,,,,,,,,,,,,,,,,,,,,,,,,,,,,,,,,,,,,,,,,,,
,,60871d7dcbf3bd9bf2c40be8,65af559cac09f8926668b570,2024-01-23_07h59.48.104,bars,2023.2.3,Win32,59.88023952,657b66ea316d21385b68909f,,,,,,,,,,,125.8425,126.8391,126.8392,127.3396,127.3397,127.5897,127.5898,141,141,131.3933,space,3.7861,,131.3933,133.9136,space,2.5035,,0,4,4,6,1,175,bars/single006.png,bars/mask005.png,,,,,,,,,,,,,,,,,,,,,,,,,,,,,,,,,,,,,,,,,,,,,,,,,,,,,,,,,,,,,,,,
,,60871d7dcbf3bd9bf2c40be8,65af559cac09f8926668b570,2024-01-23_07h59.48.104,bars,2023.2.3,Win32,59.88023952,657b66ea316d21385b68909f,,,,,,,,,,,133.9184,134.9144,134.9144,135.4152,135.4152,135.6643,135.6643,141,141,140.8872,space,5.2054,,140.8872,144.6237,space,3.7205,,0,5,5,9,1,20,bars/single009.png,bars/mask006.png,,,,,,,,,,,,,,,,,,,,,,,,,,,,,,,,,,,,,,,,,,,,,,,,,,,,,,,,,,,,,,,,
,,60871d7dcbf3bd9bf2c40be8,65af559cac09f8926668b570,2024-01-23_07h59.48.104,bars,2023.2.3,Win32,59.88023952,657b66ea316d21385b68909f,,,,,,,,,,,144.6284,145.6249,145.6249,146.1257,146.1257,146.3749,146.3749,25,25,151.5639,space,5.1716,,151.5639,152.4322,space,0.8516,,0,6,6,4,1,95,bars/single004.png,bars/mask004.png,,,,,,,,,,,,,,,,,,,,,,,,,,,,,,,,,,,,,,,,,,,,,,,,,,,,,,,,,,,,,,,,
,,60871d7dcbf3bd9bf2c40be8,65af559cac09f8926668b570,2024-01-23_07h59.48.104,bars,2023.2.3,Win32,59.88023952,657b66ea316d21385b68909f,,,,,,,,,,,152.4324,153.4323,153.4324,153.9325,153.9325,154.1828,154.1828,112,292,160.6571,space,6.4574,,160.6572,161.8576,space,1.185,,0,7,7,2,1,145,bars/single002.png,bars/mask003.png,,,,,,,,,,,,,,,,,,,,,,,,,,,,,,,,,,,,,,,,,,,,,,,,,,,,,,,,,,,,,,,,
,,60871d7dcbf3bd9bf2c40be8,65af559cac09f8926668b570,2024-01-23_07h59.48.104,bars,2023.2.3,Win32,59.88023952,657b66ea316d21385b68909f,,,,,,,,,,,161.8578,162.8589,162.859,163.3596,163.3596,163.6093,163.6093,125,125,167.7975,space,4.1718,,167.7975,168.3139,space,0.5011,,0,8,8,8,1,160,bars/single008.png,bars/mask004.png,,,,,,,,,,,,,,,,,,,,,,,,,,,,,,,,,,,,,,,,,,,,,,,,,,,,,,,,,,,,,,,,
,,60871d7dcbf3bd9bf2c40be8,65af559cac09f8926668b570,2024-01-23_07h59.48.104,bars,2023.2.3,Win32,59.88023952,657b66ea316d21385b68909f,,,,,,,,,,,168.3142,169.3152,169.3152,169.815,169.8151,170.0652,170.0653,135,135,172.6521,space,2.57,,172.6521,173.5691,space,0.901,,0,9,9,1,1,20,bars/single001.png,bars/mask006.png,,,,,,,,,,,,,,,,,,,,,,,,,,,,,,,,,,,,,,,,,,,,,,,,,,,,,,,,,,,,,,,,
,,60871d7dcbf3bd9bf2c40be8,65af559cac09f8926668b570,2024-01-23_07h59.48.104,bars,2023.2.3,Win32,59.88023952,657b66ea316d21385b68909f,,,,,,,,,,,,,,,,,,,,,,,,,,,,,,,,,,,,,173.5696,195.8422,space,22.2564,,,,,,,,,,,,,,,,,,,,,,,,,,,,,,,,,,,,,,,,,,,,,,,,,,,,,,,,,,,,
,,60871d7dcbf3bd9bf2c40be8,65af559cac09f8926668b570,2024-01-23_07h59.48.104,bars,2023.2.3,Win32,59.88023952,657b66ea316d21385b68909f,,,,,,,,,,,,,,,,,,,,,,,,,,,,,,,,,,,,,,,,,,195.848,197.2595,right,1.4019,,197.2595,2,2,198.2607,0,0,0,0,1,9,1,9,2,,,,,,,,,,,,,,,,,,,,,,,,,,,,,,,,,,,,,,,,,
,,60871d7dcbf3bd9bf2c40be8,65af559cac09f8926668b570,2024-01-23_07h59.48.104,bars,2023.2.3,Win32,59.88023952,657b66ea316d21385b68909f,,,,,,,,,,,,,,,,,,,,,,,,,,,,,,,,,,,,,,,,,,198.261,201.0948,left,2.8046,,201.0949,10,1,202.0979,0,1,1,1,1,10,0,10,1,,,,,,,,,,,,,,,,,,,,,,,,,,,,,,,,,,,,,,,,,
,,60871d7dcbf3bd9bf2c40be8,65af559cac09f8926668b570,2024-01-23_07h59.48.104,bars,2023.2.3,Win32,59.88023952,657b66ea316d21385b68909f,,,,,,,,,,,,,,,,,,,,,,,,,,,,,,,,,,,,,,,,,,202.0981,203.833,left,1.7195,,203.8331,10,1,204.8329,0,2,2,2,1,10,2,10,2,,,,,,,,,,,,,,,,,,,,,,,,,,,,,,,,,,,,,,,,,
,,60871d7dcbf3bd9bf2c40be8,65af559cac09f8926668b570,2024-01-23_07h59.48.104,bars,2023.2.3,Win32,59.88023952,657b66ea316d21385b68909f,,,,,,,,,,,,,,,,,,,,,,,,,,,,,,,,,,,,,,,,,,204.8332,205.9682,left,1.1182,,205.9682,7,1,206.9696,0,3,3,3,1,8,4,7,3,,,,,,,,,,,,,,,,,,,,,,,,,,,,,,,,,,,,,,,,,
,,60871d7dcbf3bd9bf2c40be8,65af559cac09f8926668b570,2024-01-23_07h59.48.104,bars,2023.2.3,Win32,59.88023952,657b66ea316d21385b68909f,,,,,,,,,,,,,,,,,,,,,,,,,,,,,,,,,,,,,,,,,,206.9699,208.571,left,1.585,,208.571,5,1,209.5717,0,4,4,4,1,6,2,5,1,,,,,,,,,,,,,,,,,,,,,,,,,,,,,,,,,,,,,,,,,
,,60871d7dcbf3bd9bf2c40be8,65af559cac09f8926668b570,2024-01-23_07h59.48.104,bars,2023.2.3,Win32,59.88023952,657b66ea316d21385b68909f,,,,,,,,,,,,,,,,,,,,,,,,,,,,,,,,,,,,,,,,,,209.572,210.6893,right,1.1004,,210.6893,4,2,211.6903,0,5,5,5,1,4,4,4,4,,,,,,,,,,,,,,,,,,,,,,,,,,,,,,,,,,,,,,,,,
,,60871d7dcbf3bd9bf2c40be8,65af559cac09f8926668b570,2024-01-23_07h59.48.104,bars,2023.2.3,Win32,59.88023952,657b66ea316d21385b68909f,,,,,,,,,,,,,,,,,,,,,,,,,,,,,,,,,,,,,,,,,,211.6905,212.4086,left,0.7014,,212.4086,1,1,213.4083,0,6,6,6,1,2,2,1,2,,,,,,,,,,,,,,,,,,,,,,,,,,,,,,,,,,,,,,,,,
,,60871d7dcbf3bd9bf2c40be8,65af559cac09f8926668b570,2024-01-23_07h59.48.104,bars,2023.2.3,Win32,59.88023952,657b66ea316d21385b68909f,,,,,,,,,,,,,,,,,,,,,,,,,,,,,,,,,,,,,,,,,,213.4085,214.0425,left,0.6171,,214.0426,0,1,215.0437,0,7,7,7,1,0,0,0,1,,,,,,,,,,,,,,,,,,,,,,,,,,,,,,,,,,,,,,,,,
,,60871d7dcbf3bd9bf2c40be8,65af559cac09f8926668b570,2024-01-23_07h59.48.104,bars,2023.2.3,Win32,59.88023952,657b66ea316d21385b68909f,,,,,,,,,,,,,,,,,,,,,,,,,,,,,,,,,,,,,,,,,,215.0439,215.595,left,0.5345,,215.5951,1,1,216.5957,0,8,8,8,1,0,2,1,0,,,,,,,,,,,,,,,,,,,,,,,,,,,,,,,,,,,,,,,,,
,,60871d7dcbf3bd9bf2c40be8,65af559cac09f8926668b570,2024-01-23_07h59.48.104,bars,2023.2.3,Win32,59.88023952,657b66ea316d21385b68909f,,,,,,,,,,,,,,,,,,,,,,,,,,,,,,,,,,,,,,,,,,216.596,217.0623,right,0.4499,,217.0624,3,2,218.0635,0,9,9,9,1,2,4,2,3,,,,,,,,,,,,,,,,,,,,,,,,,,,,,,,,,,,,,,,,,
,,60871d7dcbf3bd9bf2c40be8,65af559cac09f8926668b570,2024-01-23_07h59.48.104,bars,2023.2.3,Win32,59.88023952,657b66ea316d21385b68909f,,,,,,,,,,,,,,,,,,,,,,,,,,,,,,,,,,,,,,,,,,218.0638,218.5644,right,0.4844,,218.5645,3,2,219.5649,0,10,10,10,1,0,2,0,3,,,,,,,,,,,,,,,,,,,,,,,,,,,,,,,,,,,,,,,,,
,,60871d7dcbf3bd9bf2c40be8,65af559cac09f8926668b570,2024-01-23_07h59.48.104,bars,2023.2.3,Win32,59.88023952,657b66ea316d21385b68909f,,,,,,,,,,,,,,,,,,,,,,,,,,,,,,,,,,,,,,,,,,219.5651,220.3487,right,0.7676,,220.3487,3,2,221.3494,0,11,11,11,1,0,4,0,3,,,,,,,,,,,,,,,,,,,,,,,,,,,,,,,,,,,,,,,,,
,,60871d7dcbf3bd9bf2c40be8,65af559cac09f8926668b570,2024-01-23_07h59.48.104,bars,2023.2.3,Win32,59.88023952,657b66ea316d21385b68909f,,,,,,,,,,,,,,,,,,,,,,,,,,,,,,,,,,,,,,,,,,221.3497,221.9682,left,0.6017,,221.9682,1,1,222.9686,0,12,12,12,1,2,6,1,6,,,,,,,,,,,,,,,,,,,,,,,,,,,,,,,,,,,,,,,,,
,,60871d7dcbf3bd9bf2c40be8,65af559cac09f8926668b570,2024-01-23_07h59.48.104,bars,2023.2.3,Win32,59.88023952,657b66ea316d21385b68909f,,,,,,,,,,,,,,,,,,,,,,,,,,,,,,,,,,,,,,,,,,222.9689,223.4857,right,0.5003,,223.4857,3,2,224.4863,0,13,13,13,1,0,4,1,3,,,,,,,,,,,,,,,,,,,,,,,,,,,,,,,,,,,,,,,,,
,,60871d7dcbf3bd9bf2c40be8,65af559cac09f8926668b570,2024-01-23_07h59.48.104,bars,2023.2.3,Win32,59.88023952,657b66ea316d21385b68909f,,,,,,,,,,,,,,,,,,,,,,,,,,,,,,,,,,,,,,,,,,224.4864,225.0205,right,0.5174,,225.0205,7,2,226.0217,0,14,14,14,1,2,6,2,7,,,,,,,,,,,,,,,,,,,,,,,,,,,,,,,,,,,,,,,,,
,,60871d7dcbf3bd9bf2c40be8,65af559cac09f8926668b570,2024-01-23_07h59.48.104,bars,2023.2.3,Win32,59.88023952,657b66ea316d21385b68909f,,,,,,,,,,,,,,,,,,,,,,,,,,,,,,,,,,,,,,,,,,226.022,226.5557,right,0.5179,,226.5557,9,2,227.5567,0,15,15,15,1,4,8,3,9,,,,,,,,,,,,,,,,,,,,,,,,,,,,,,,,,,,,,,,,,
,,60871d7dcbf3bd9bf2c40be8,65af559cac09f8926668b570,2024-01-23_07h59.48.104,bars,2023.2.3,Win32,59.88023952,657b66ea316d21385b68909f,,,,,,,,,,,,,,,,,,,,,,,,,,,,,,,,,,,,,,,,,,227.5569,228.0565,right,0.484,,228.0565,7,2,229.0583,0,16,16,16,1,6,6,7,7,,,,,,,,,,,,,,,,,,,,,,,,,,,,,,,,,,,,,,,,,
,,60871d7dcbf3bd9bf2c40be8,65af559cac09f8926668b570,2024-01-23_07h59.48.104,bars,2023.2.3,Win32,59.88023952,657b66ea316d21385b68909f,,,,,,,,,,,,,,,,,,,,,,,,,,,,,,,,,,,,,,,,,,229.0585,229.7087,right,0.6347,,229.7087,5,2,230.7097,0,17,17,17,1,8,4,9,5,,,,,,,,,,,,,,,,,,,,,,,,,,,,,,,,,,,,,,,,,
,,60871d7dcbf3bd9bf2c40be8,65af559cac09f8926668b570,2024-01-23_07h59.48.104,bars,2023.2.3,Win32,59.88023952,657b66ea316d21385b68909f,,,,,,,,,,,,,,,,,,,,,,,,,,,,,,,,,,,,,,,,,,230.71,231.3096,left,0.5836,,231.3096,5,1,232.3116,0,18,18,18,1,6,2,5,1,,,,,,,,,,,,,,,,,,,,,,,,,,,,,,,,,,,,,,,,,
,,60871d7dcbf3bd9bf2c40be8,65af559cac09f8926668b570,2024-01-23_07h59.48.104,bars,2023.2.3,Win32,59.88023952,657b66ea316d21385b68909f,,,,,,,,,,,,,,,,,,,,,,,,,,,,,,,,,,,,,,,,,,232.3117,232.8114,left,0.4837,,232.8114,7,1,233.8129,0,19,19,19,1,8,0,7,0,,,,,,,,,,,,,,,,,,,,,,,,,,,,,,,,,,,,,,,,,
,,60871d7dcbf3bd9bf2c40be8,65af559cac09f8926668b570,2024-01-23_07h59.48.104,bars,2023.2.3,Win32,59.88023952,657b66ea316d21385b68909f,,,,,,,,,,,,,,,,,,,,,,,,,,,,,,,,,,,,,,,,,,,,,,,,,,,,,,,,,,,,233.8132,250.3463,space,16.5165,,,,,,,,,,,,,,,,,,,,,,,,,,,,,,,,,,,,,
,,60871d7dcbf3bd9bf2c40be8,65af559cac09f8926668b570,2024-01-23_07h59.48.104,bars,2023.2.3,Win32,59.88023952,657b66ea316d21385b68909f,,,,,,,,,,,253.7347,254.7338,,,255.2344,255.4841,,35,35,,,,,,,,,,,,,,,,bars/013.png,bars/mask001.png,,,,,,,,,,,,0,2,,,,,,,10,2,10,0,,,,,,250.352,253.7326,space,3.3706,,254.7339,255.2344,255.4843,259.9888,space,4.4879,,259.989,40,25,260.9897,260.9899,273.9025,space,12.8958,,0,0,0,0,1,75,10,,,,,,,,
,,60871d7dcbf3bd9bf2c40be8,65af559cac09f8926668b570,2024-01-23_07h59.48.104,bars,2023.2.3,Win32,59.88023952,657b66ea316d21385b68909f,,,,,,,,,,,273.9073,274.904,,,275.4042,275.6546,,34,214,,,,,,,,,,,,,,,,bars/028.png,bars/mask002.png,,,,,,,,,,,,6,1,,,,,,,10,0,10,1,,,,,,,,,,,274.9041,275.4042,275.6546,282.7946,space,7.1233,,282.7946,11,86,283.7951,283.7951,289.919,space,6.107,,0,1,1,1,1,45,120,,,,,,,,
,,60871d7dcbf3bd9bf2c40be8,65af559cac09f8926668b570,2024-01-23_07h59.48.104,bars,2023.2.3,Win32,59.88023952,657b66ea316d21385b68909f,,,,,,,,,,,289.9235,290.92,,,291.4201,291.6704,,43,43,,,,,,,,,,,,,,,,bars/010.png,bars/mask006.png,,,,,,,,,,,,0,2,,,,,,,8,2,8,0,,,,,,,,,,,290.92,291.4201,291.6704,295.2571,space,3.5699,,295.2572,58,12,296.2582,296.2582,301.1136,space,4.8384,,0,2,2,2,1,165,55,,,,,,,,
,,60871d7dcbf3bd9bf2c40be8,65af559cac09f8926668b570,2024-01-23_07h59.48.104,bars,2023.2.3,Win32,59.88023952,657b66ea316d21385b68909f,,,,,,,,,,,301.1183,302.1137,,,302.6138,302.865,,155,155,,,,,,,,,,,,,,,,bars/003.png,bars/mask003.png,,,,,,,,,,,,0,2,,,,,,,6,0,6,0,,,,,,,,,,,302.1137,302.6138,302.865,306.4182,space,3.537,,306.4182,50,15,307.4192,307.4192,313.4919,space,6.056,,0,3,3,3,1,25,140,,,,,,,,
,,60871d7dcbf3bd9bf2c40be8,65af559cac09f8926668b570,2024-01-23_07h59.48.104,bars,2023.2.3,Win32,59.88023952,657b66ea316d21385b68909f,,,,,,,,,,,313.4966,314.4931,,,314.9933,315.2436,,156,156,,,,,,,,,,,,,,,,bars/040.png,bars/mask006.png,,,,,,,,,,,,4,1,,,,,,,8,0,8,0,,,,,,,,,,,314.4932,314.9933,315.2437,318.0966,space,2.8362,,318.0966,16,29,319.0978,319.0978,322.218,space,3.1045,,0,4,4,4,1,140,5,,,,,,,,
,,60871d7dcbf3bd9bf2c40be8,65af559cac09f8926668b570,2024-01-23_07h59.48.104,bars,2023.2.3,Win32,59.88023952,657b66ea316d21385b68909f,,,,,,,,,,,322.2182,323.2186,,,323.719,323.9694,,164,-16,,,,,,,,,,,,,,,,bars/049.png,bars/mask006.png,,,,,,,,,,,,6,1,,,,,,,6,2,7,3,,,,,,,,,,,323.2186,323.7189,323.9694,327.857,space,3.8711,,327.857,4,49,328.8568,328.8569,332.0606,space,3.1866,,0,5,5,5,1,160,115,,,,,,,,
,,60871d7dcbf3bd9bf2c40be8,65af559cac09f8926668b570,2024-01-23_07h59.48.104,bars,2023.2.3,Win32,59.88023952,657b66ea316d21385b68909f,,,,,,,,,,,332.0608,333.0611,,,333.5624,333.8127,,7,7,,,,,,,,,,,,,,,,bars/008.png,bars/mask002.png,,,,,,,,,,,,2,2,,,,,,,8,4,6,3,,,,,,,,,,,333.0611,333.5624,333.8127,336.8317,space,3.0027,,336.8317,77,7,337.8336,337.8336,339.785,space,1.9358,,0,6,6,6,1,110,0,,,,,,,,
,,60871d7dcbf3bd9bf2c40be8,65af559cac09f8926668b570,2024-01-23_07h59.48.104,bars,2023.2.3,Win32,59.88023952,657b66ea316d21385b68909f,,,,,,,,,,,339.7852,340.786,,,341.2863,341.5367,,166,-14,,,,,,,,,,,,,,,,bars/007.png,bars/mask008.png,,,,,,,,,,,,4,1,,,,,,,6,2,6,3,,,,,,,,,,,340.786,341.2862,341.5367,345.2568,space,3.7032,,345.2568,9,69,346.258,346.258,354.7836,space,8.5097,,0,7,7,7,1,175,55,,,,,,,,
,,60871d7dcbf3bd9bf2c40be8,65af559cac09f8926668b570,2024-01-23_07h59.48.104,bars,2023.2.3,Win32,59.88023952,657b66ea316d21385b68909f,,,,,,,,,,,354.7884,355.7837,,,356.285,356.5341,,171,171,,,,,,,,,,,,,,,,bars/023.png,bars/mask004.png,,,,,,,,,,,,0,1,,,,,,,8,0,8,0,,,,,,,,,,,355.7837,356.285,356.5342,358.5371,space,1.9861,,358.5372,29,56,359.5379,359.5379,360.6724,space,1.1184,,0,8,8,8,1,20,115,,,,,,,,
,,60871d7dcbf3bd9bf2c40be8,65af559cac09f8926668b570,2024-01-23_07h59.48.104,bars,2023.2.3,Win32,59.88023952,657b66ea316d21385b68909f,,,,,,,,,,,360.6726,361.6733,,,362.1734,362.4238,,60,240,,,,,,,,,,,,,,,,bars/022.png,bars/mask003.png,,,,,,,,,,,,0,1,,,,,,,6,0,7,0,,,,,,,,,,,361.6733,362.1734,362.4238,366.1283,space,3.6876,,366.1284,35,40,367.129,367.1291,370.4826,space,3.3374,,0,9,9,9,1,95,20,,,,,,,,
,,60871d7dcbf3bd9bf2c40be8,65af559cac09f8926668b570,2024-01-23_07h59.48.104,bars,2023.2.3,Win32,59.88023952,657b66ea316d21385b68909f,,,,,,,,,,,370.4828,371.4832,,,371.9835,372.234,,125,125,,,,,,,,,,,,,,,,bars/015.png,bars/mask004.png,,,,,,,,,,,,4,1,,,,,,,8,2,7,2,,,,,,,,,,,371.4833,371.9835,372.234,374.9695,space,2.7194,,374.9695,15,35,375.9704,375.9704,379.1912,space,3.2039,,0,10,10,10,1,110,160,,,,,,,,
,,60871d7dcbf3bd9bf2c40be8,65af559cac09f8926668b570,2024-01-23_07h59.48.104,bars,2023.2.3,Win32,59.88023952,657b66ea316d21385b68909f,,,,,,,,,,,379.1957,380.1919,,,380.6926,380.9428,,129,129,,,,,,,,,,,,,,,,bars/036.png,bars/mask008.png,,,,,,,,,,,,3,1,,,,,,,6,4,6,3,,,,,,,,,,,380.1919,380.6925,380.9429,384.4292,space,3.4701,,384.4292,16,71,385.4303,385.4303,389.6177,space,4.1712,,0,11,11,11,1,145,20,,,,,,,,
,,60871d7dcbf3bd9bf2c40be8,65af559cac09f8926668b570,2024-01-23_07h59.48.104,bars,2023.2.3,Win32,59.88023952,657b66ea316d21385b68909f,,,,,,,,,,,389.6223,390.6187,,,391.1193,391.3699,,125,125,,,,,,,,,,,,,,,,bars/021.png,bars/mask000.png,,,,,,,,,,,,0,1,,,,,,,4,2,4,0,,,,,,,,,,,390.6188,391.1193,391.3699,396.8581,space,5.4721,,396.8581,30,55,397.8596,397.8597,402.2306,space,4.3554,,0,12,12,12,1,155,70,,,,,,,,
,,60871d7dcbf3bd9bf2c40be8,65af559cac09f8926668b570,2024-01-23_07h59.48.104,bars,2023.2.3,Win32,59.88023952,657b66ea316d21385b68909f,,,,,,,,,,,402.2353,403.2317,,,403.732,403.9817,,73,73,,,,,,,,,,,,,,,,bars/012.png,bars/mask000.png,,,,,,,,,,,,1,1,,,,,,,2,4,2,4,,,,,,,,,,,403.2317,403.7319,403.9818,406.8676,space,2.8687,,406.8676,17,58,407.8684,407.8685,408.3701,space,0.4839,,0,13,13,13,1,90,15,,,,,,,,
,,60871d7dcbf3bd9bf2c40be8,65af559cac09f8926668b570,2024-01-23_07h59.48.104,bars,2023.2.3,Win32,59.88023952,657b66ea316d21385b68909f,,,,,,,,,,,408.3704,409.3702,,,409.8715,410.1215,,161,161,,,,,,,,,,,,,,,,bars/049.png,bars/mask004.png,,,,,,,,,,,,0,1,,,,,,,0,2,0,0,,,,,,,,,,,409.3702,409.8714,410.1215,414.7599,space,4.622,,414.76,1,46,415.7607,415.7607,419.9315,space,4.155,,0,14,14,14,1,160,115,,,,,,,,
,,60871d7dcbf3bd9bf2c40be8,65af559cac09f8926668b570,2024-01-23_07h59.48.104,bars,2023.2.3,Win32,59.88023952,657b66ea316d21385b68909f,,,,,,,,,,,419.9361,420.9324,,,421.4327,421.6833,,113,113,,,,,,,,,,,,,,,,bars/031.png,bars/mask004.png,,,,,,,,,,,,0,1,,,,,,,0,4,0,3,,,,,,,,,,,420.9325,421.4327,421.6833,424.7359,space,3.0359,,424.736,7,78,425.7363,425.7364,427.906,space,2.1525,,0,15,15,15,1,120,35,,,,,,,,
,,60871d7dcbf3bd9bf2c40be8,65af559cac09f8926668b570,2024-01-23_07h59.48.104,bars,2023.2.3,Win32,59.88023952,657b66ea316d21385b68909f,,,,,,,,,,,427.9063,428.9066,,,429.4067,429.6572,,169,169,,,,,,,,,,,,,,,,bars/005.png,bars/mask002.png,,,,,,,,,,,,1,1,,,,,,,2,2,3,3,,,,,,,,,,,428.9066,429.4067,429.6572,433.0441,space,3.3701,,433.0442,21,29,434.0457,434.0457,435.7809,space,1.7196,,0,16,16,16,1,10,140,,,,,,,,
,,60871d7dcbf3bd9bf2c40be8,65af559cac09f8926668b570,2024-01-23_07h59.48.104,bars,2023.2.3,Win32,59.88023952,657b66ea316d21385b68909f,,,,,,,,,,,435.7811,436.7819,,,437.2821,437.5313,,155,155,,,,,,,,,,,,,,,,bars/049.png,bars/mask006.png,,,,,,,,,,,,2,1,,,,,,,4,4,2,4,,,,,,,,,,,436.782,437.2821,437.5313,441.6535,space,4.1049,,441.6536,5,40,442.6545,442.6545,447.4252,space,4.7553,,0,17,17,17,1,160,115,,,,,,,,
,,60871d7dcbf3bd9bf2c40be8,65af559cac09f8926668b570,2024-01-23_07h59.48.104,bars,2023.2.3,Win32,59.88023952,657b66ea316d21385b68909f,,,,,,,,,,,447.4299,448.426,,,448.9273,449.1771,,61,61,,,,,,,,,,,,,,,,bars/038.png,bars/mask000.png,,,,,,,,,,,,2,2,,,,,,,6,2,7,3,,,,,,,,,,,448.426,448.9272,449.1771,452.6473,space,3.4535,,452.6473,76,9,453.6485,453.6485,455.5843,space,1.9202,,0,18,18,18,1,165,70,,,,,,,,
,,60871d7dcbf3bd9bf2c40be8,65af559cac09f8926668b570,2024-01-23_07h59.48.104,bars,2023.2.3,Win32,59.88023952,657b66ea316d21385b68909f,,,,,,,,,,,455.5844,456.5857,,,457.0853,457.3349,,58,58,,,,,,,,,,,,,,,,bars/020.png,bars/mask002.png,,,,,,,,,,,,0,1,,,,,,,4,4,3,6,,,,,,,,,,,456.5857,457.0853,457.335,459.7706,space,2.4195,,459.7706,57,68,460.7703,460.7703,460.872,space,0.0831,,0,19,19,19,1,115,170,,,,,,,,
,,60871d7dcbf3bd9bf2c40be8,65af559cac09f8926668b570,2024-01-23_07h59.48.104,bars,2023.2.3,Win32,59.88023952,657b66ea316d21385b68909f,,,,,,,,,,,460.8723,461.8731,,,462.374,462.6242,,113,113,,,,,,,,,,,,,,,,bars/025.png,bars/mask004.png,,,,,,,,,,,,4,1,,,,,,,6,2,6,2,,,,,,,,,,,461.8731,462.3739,462.6243,465.2092,space,2.5687,,465.2093,8,73,466.211,466.2111,468.0629,space,1.8357,,0,20,20,20,1,105,40,,,,,,,,
,,60871d7dcbf3bd9bf2c40be8,65af559cac09f8926668b570,2024-01-23_07h59.48.104,bars,2023.2.3,Win32,59.88023952,657b66ea316d21385b68909f,,,,,,,,,,,468.0631,469.0635,,,469.5642,469.8139,,71,71,,,,,,,,,,,,,,,,bars/019.png,bars/mask009.png,,,,,,,,,,,,1,1,,,,,,,8,4,10,7,,,,,,,,,,,469.0636,469.5642,469.814,472.4816,space,2.6438,,472.4816,26,34,473.4855,473.4855,477.756,space,4.2551,,0,21,21,21,1,45,105,,,,,,,,
,,60871d7dcbf3bd9bf2c40be8,65af559cac09f8926668b570,2024-01-23_07h59.48.104,bars,2023.2.3,Win32,59.88023952,657b66ea316d21385b68909f,,,,,,,,,,,477.7609,478.7568,,,479.2562,479.5076,,127,127,,,,,,,,,,,,,,,,bars/040.png,bars/mask007.png,,,,,,,,,,,,6,1,,,,,,,10,6,10,6,,,,,,,,,,,478.7568,479.2562,479.5077,482.7275,space,3.2036,,482.7275,13,58,483.728,483.7281,486.9151,space,3.1709,,0,22,22,22,1,140,5,,,,,,,,
,,60871d7dcbf3bd9bf2c40be8,65af559cac09f8926668b570,2024-01-23_07h59.48.104,bars,2023.2.3,Win32,59.88023952,657b66ea316d21385b68909f,,,,,,,,,,,486.9196,487.916,,,488.4163,488.6657,,133,133,,,,,,,,,,,,,,,,bars/000.png,bars/mask009.png,,,,,,,,,,,,2,2,,,,,,,8,4,8,3,,,,,,,,,,,487.9161,488.4163,488.6658,490.7014,space,2.0181,,490.7014,87,12,491.7031,491.7031,493.572,space,1.8531,,0,23,23,23,1,40,145,,,,,,,,
,,60871d7dcbf3bd9bf2c40be8,65af559cac09f8926668b570,2024-01-23_07h59.48.104,bars,2023.2.3,Win32,59.88023952,657b66ea316d21385b68909f,,,,,,,,,,,493.5722,494.5724,,,495.0724,495.323,,132,132,,,,,,,,,,,,,,,,bars/043.png,bars/mask001.png,,,,,,,,,,,,7,2,,,,,,,6,6,6,8,,,,,,,,,,,494.5724,495.0723,495.323,499.8944,space,4.5554,,499.8944,78,2,500.8945,500.8945,502.8805,space,1.9692,,0,24,24,24,1,30,130,,,,,,,,
,,60871d7dcbf3bd9bf2c40be8,65af559cac09f8926668b570,2024-01-23_07h59.48.104,bars,2023.2.3,Win32,59.88023952,657b66ea316d21385b68909f,,,,,,,,,,,502.8808,503.8815,,,504.382,504.6321,,97,97,,,,,,,,,,,,,,,,bars/011.png,bars/mask005.png,,,,,,,,,,,,5,2,,,,,,,4,8,5,8,,,,,,,,,,,503.8816,504.382,504.6322,507.4523,space,2.8035,,507.4524,63,12,508.4519,508.4519,511.9227,space,3.4535,,0,25,25,25,1,160,85,,,,,,,,
,,60871d7dcbf3bd9bf2c40be8,65af559cac09f8926668b570,2024-01-23_07h59.48.104,bars,2023.2.3,Win32,59.88023952,657b66ea316d21385b68909f,,,,,,,,,,,511.9229,512.9237,,,513.4248,513.6757,,165,165,,,,,,,,,,,,,,,,bars/048.png,bars/mask004.png,,,,,,,,,,,,7,2,,,,,,,6,10,6,10,,,,,,,,,,,512.9238,513.4248,513.6757,516.0767,space,2.3859,,516.0768,65,10,517.0781,517.0781,519.1966,space,2.1024,,0,26,26,26,1,50,175,,,,,,,,
,,60871d7dcbf3bd9bf2c40be8,65af559cac09f8926668b570,2024-01-23_07h59.48.104,bars,2023.2.3,Win32,59.88023952,657b66ea316d21385b68909f,,,,,,,,,,,519.1968,520.1977,,,520.6988,520.9492,,161,161,,,,,,,,,,,,,,,,bars/043.png,bars/mask002.png,,,,,,,,,,,,0,2,,,,,,,4,8,2,7,,,,,,,,,,,520.1978,520.6988,520.9493,528.3734,space,7.4084,,528.3735,49,31,529.374,529.374,530.7247,space,1.3347,,0,27,27,27,1,30,130,,,,,,,,
,,60871d7dcbf3bd9bf2c40be8,65af559cac09f8926668b570,2024-01-23_07h59.48.104,bars,2023.2.3,Win32,59.88023952,657b66ea316d21385b68909f,,,,,,,,,,,530.7249,531.7251,,,532.2262,532.4765,,25,205,,,,,,,,,,,,,,,,bars/008.png,bars/mask008.png,,,,,,,,,,,,2,2,,,,,,,6,10,8,10,,,,,,,,,,,531.7251,532.2261,532.4765,538.1319,space,5.6392,,538.1319,85,25,539.1325,539.1326,540.7354,space,1.586,,0,28,28,28,1,110,0,,,,,,,,
,,60871d7dcbf3bd9bf2c40be8,65af559cac09f8926668b570,2024-01-23_07h59.48.104,bars,2023.2.3,Win32,59.88023952,657b66ea316d21385b68909f,,,,,,,,,,,540.7357,541.7352,,,542.2366,542.487,,16,196,,,,,,,,,,,,,,,,bars/014.png,bars/mask002.png,,,,,,,,,,,,5,2,,,,,,,8,10,7,10,,,,,,,,,,,541.7353,542.2366,542.4871,545.8226,space,3.3195,,545.8226,64,16,546.8223,546.8223,548.3254,space,1.485,,0,29,29,29,1,80,0,,,,,,,,
,,60871d7dcbf3bd9bf2c40be8,65af559cac09f8926668b570,2024-01-23_07h59.48.104,bars,2023.2.3,Win32,59.88023952,657b66ea316d21385b68909f,,,,,,,,,,,548.3257,549.3268,,,549.8269,550.0776,,132,132,,,,,,,,,,,,,,,,bars/049.png,bars/mask007.png,,,,,,,,,,,,4,2,,,,,,,6,10,6,10,,,,,,,,,,,549.3269,549.8269,550.0776,552.1798,space,2.0864,,552.1798,28,17,553.1801,553.1802,555.3489,space,2.1525,,0,30,30,30,1,160,115,,,,,,,,
,,60871d7dcbf3bd9bf2c40be8,65af559cac09f8926668b570,2024-01-23_07h59.48.104,bars,2023.2.3,Win32,59.88023952,657b66ea316d21385b68909f,,,,,,,,,,,555.3491,556.3484,,,556.8504,557.1014,,160,160,,,,,,,,,,,,,,,,bars/033.png,bars/mask009.png,,,,,,,,,,,,8,2,,,,,,,8,8,10,9,,,,,,,,,,,556.3485,556.8504,557.1014,563.0233,space,5.9053,,563.0233,45,5,564.0242,564.0242,565.0424,space,1.0013,,0,31,31,31,1,25,155,,,,,,,,
,,60871d7dcbf3bd9bf2c40be8,65af559cac09f8926668b570,2024-01-23_07h59.48.104,bars,2023.2.3,Win32,59.88023952,657b66ea316d21385b68909f,,,,,,,,,,,565.0426,566.0432,,,566.5434,566.794,,17,17,,,,,,,,,,,,,,,,bars/048.png,bars/mask000.png,,,,,,,,,,,,2,2,,,,,,,10,6,10,6,,,,,,,,,,,566.0432,566.5433,566.7941,568.7459,space,1.9349,,568.7459,33,22,569.7475,569.7475,571.6821,space,1.9189,,0,32,32,32,1,50,175,,,,,,,,
,,60871d7dcbf3bd9bf2c40be8,65af559cac09f8926668b570,2024-01-23_07h59.48.104,bars,2023.2.3,Win32,59.88023952,657b66ea316d21385b68909f,,,,,,,,,,,571.6823,572.683,,,573.1841,573.4344,,132,132,,,,,,,,,,,,,,,,bars/009.png,bars/mask000.png,,,,,,,,,,,,1,2,,,,,,,10,8,10,7,,,,,,,,,,,572.6831,573.1841,573.4344,576.5853,space,3.1312,,576.5853,63,27,577.588,577.5881,578.5398,space,0.9356,,0,33,33,33,1,15,105,,,,,,,,
,,60871d7dcbf3bd9bf2c40be8,65af559cac09f8926668b570,2024-01-23_07h59.48.104,bars,2023.2.3,Win32,59.88023952,657b66ea316d21385b68909f,,,,,,,,,,,578.5399,579.5404,,,580.0411,580.2915,,106,106,,,,,,,,,,,,,,,,bars/007.png,bars/mask001.png,,,,,,,,,,,,0,2,,,,,,,8,6,7,6,,,,,,,,,,,579.5404,580.0411,580.2916,582.4268,space,2.1197,,582.4268,69,51,583.427,583.427,584.7281,space,1.2847,,0,34,34,34,1,175,55,,,,,,,,
,,60871d7dcbf3bd9bf2c40be8,65af559cac09f8926668b570,2024-01-23_07h59.48.104,bars,2023.2.3,Win32,59.88023952,657b66ea316d21385b68909f,,,,,,,,,,,584.7284,585.7298,,,586.2302,586.4805,,25,205,,,,,,,,,,,,,,,,bars/017.png,bars/mask004.png,,,,,,,,,,,,2,2,,,,,,,10,4,10,5,,,,,,,,,,,585.7298,586.2302,586.4805,593.2033,space,6.7064,,593.2033,60,20,594.2047,594.2048,594.9724,space,0.7515,,0,35,35,35,1,145,45,,,,,,,,
,,60871d7dcbf3bd9bf2c40be8,65af559cac09f8926668b570,2024-01-23_07h59.48.104,bars,2023.2.3,Win32,59.88023952,657b66ea316d21385b68909f,,,,,,,,,,,594.9726,595.9725,,,596.4739,596.7235,,120,120,,,,,,,,,,,,,,,,bars/001.png,bars/mask004.png,,,,,,,,,,,,7,1,,,,,,,10,6,10,8,,,,,,,,,,,595.9725,596.4738,596.7235,599.1596,space,2.4187,,599.1596,10,35,600.1601,600.1601,600.9111,space,0.7339,,0,36,36,36,1,130,85,,,,,,,,
,,60871d7dcbf3bd9bf2c40be8,65af559cac09f8926668b570,2024-01-23_07h59.48.104,bars,2023.2.3,Win32,59.88023952,657b66ea316d21385b68909f,,,,,,,,,,,600.9113,601.9104,,,602.4125,602.6628,,120,120,,,,,,,,,,,,,,,,bars/002.png,bars/mask002.png,,,,,,,,,,,,7,1,,,,,,,10,4,10,3,,,,,,,,,,,601.9104,602.4124,602.6628,606.5487,space,3.8565,,606.5487,10,35,607.5507,607.5507,607.785,space,0.2176,,0,37,37,37,1,130,85,,,,,,,,
,,60871d7dcbf3bd9bf2c40be8,65af559cac09f8926668b570,2024-01-23_07h59.48.104,bars,2023.2.3,Win32,59.88023952,657b66ea316d21385b68909f,,,,,,,,,,,607.7853,608.7855,,,609.2868,609.5361,,77,77,,,,,,,,,,,,,,,,bars/038.png,bars/mask005.png,,,,,,,,,,,,2,2,,,,,,,8,2,7,3,,,,,,,,,,,608.7855,609.2868,609.5361,613.3575,space,3.804,,613.3575,88,7,614.3587,614.3587,614.8418,space,0.4672,,0,38,38,38,1,165,70,,,,,,,,
,,60871d7dcbf3bd9bf2c40be8,65af559cac09f8926668b570,2024-01-23_07h59.48.104,bars,2023.2.3,Win32,59.88023952,657b66ea316d21385b68909f,,,,,,,,,,,614.842,615.8424,,,616.3435,616.5937,,105,105,,,,,,,,,,,,,,,,bars/019.png,bars/mask006.png,,,,,,,,,,,,4,2,,,,,,,10,4,8,4,,,,,,,,,,,615.8424,616.3434,616.5938,621.7988,space,5.189,,621.7988,60,0,622.8001,622.8001,625.1028,space,2.2871,,0,39,39,39,1,45,105,,,,,,,,
,,60871d7dcbf3bd9bf2c40be8,65af559cac09f8926668b570,2024-01-23_07h59.48.104,bars,2023.2.3,Win32,59.88023952,657b66ea316d21385b68909f,,,,,,,,,,,625.1031,626.1034,,,626.6029,626.8534,,26,206,,,,,,,,,,,,,,,,bars/014.png,bars/mask007.png,,,,,,,,,,,,0,2,,,,,,,8,2,7,3,,,,,,,,,,,626.1034,626.6029,626.8534,632.2924,space,5.4221,,632.2924,54,26,633.2941,633.2941,633.9442,space,0.6342,,0,40,40,40,1,80,0,,,,,,,,
,,60871d7dcbf3bd9bf2c40be8,65af559cac09f8926668b570,2024-01-23_07h59.48.104,bars,2023.2.3,Win32,59.88023952,657b66ea316d21385b68909f,,,,,,,,,,,633.9444,634.9454,,,635.4462,635.6958,,49,229,,,,,,,,,,,,,,,,bars/029.png,bars/mask009.png,,,,,,,,,,,,3,2,,,,,,,6,4,6,4,,,,,,,,,,,634.9454,635.4461,635.6958,640.617,space,4.9046,,640.617,41,4,641.6188,641.6188,644.4883,space,2.8535,,0,41,41,41,1,90,45,,,,,,,,
,,60871d7dcbf3bd9bf2c40be8,65af559cac09f8926668b570,2024-01-23_07h59.48.104,bars,2023.2.3,Win32,59.88023952,657b66ea316d21385b68909f,,,,,,,,,,,644.4934,645.4894,,,645.9901,646.24,,63,243,,,,,,,,,,,,,,,,bars/045.png,bars/mask007.png,,,,,,,,,,,,0,1,,,,,,,4,6,5,5,,,,,,,,,,,645.4894,645.9901,646.2401,649.6593,space,3.403,,649.6593,37,53,650.6601,650.6601,651.9788,space,1.3017,,0,42,42,42,1,100,10,,,,,,,,
,,60871d7dcbf3bd9bf2c40be8,65af559cac09f8926668b570,2024-01-23_07h59.48.104,bars,2023.2.3,Win32,59.88023952,657b66ea316d21385b68909f,,,,,,,,,,,651.979,652.9799,,,653.4808,653.7301,,39,39,,,,,,,,,,,,,,,,bars/007.png,bars/mask004.png,,,,,,,,,,,,1,2,,,,,,,2,4,1,3,,,,,,,,,,,652.9799,653.4808,653.7301,656.333,space,2.5857,,656.3331,44,16,657.3336,657.3336,658.2023,space,0.8517,,0,43,43,43,1,175,55,,,,,,,,
,,60871d7dcbf3bd9bf2c40be8,65af559cac09f8926668b570,2024-01-23_07h59.48.104,bars,2023.2.3,Win32,59.88023952,657b66ea316d21385b68909f,,,,,,,,,,,658.2024,659.2027,,,659.7013,659.9539,,166,-14,,,,,,,,,,,,,,,,bars/048.png,bars/mask005.png,,,,,,,,,,,,5,2,,,,,,,0,6,0,7,,,,,,,,,,,659.2027,659.7013,659.9539,663.6238,space,3.654,,663.6238,64,9,664.6254,664.6255,665.6097,space,0.9689,,0,44,44,44,1,50,175,,,,,,,,
,,60871d7dcbf3bd9bf2c40be8,65af559cac09f8926668b570,2024-01-23_07h59.48.104,bars,2023.2.3,Win32,59.88023952,657b66ea316d21385b68909f,,,,,,,,,,,665.6099,666.6103,,,667.1109,667.3603,,130,130,,,,,,,,,,,,,,,,bars/032.png,bars/mask000.png,,,,,,,,,,,,0,1,,,,,,,0,8,0,9,,,,,,,,,,,666.6103,667.1109,667.3603,670.6974,space,3.3204,,670.6975,5,70,671.6987,671.6987,675.6191,space,3.9045,,0,45,45,45,1,125,20,,,,,,,,
,,60871d7dcbf3bd9bf2c40be8,65af559cac09f8926668b570,2024-01-23_07h59.48.104,bars,2023.2.3,Win32,59.88023952,657b66ea316d21385b68909f,,,,,,,,,,,675.6237,676.6201,,,677.121,677.3712,,39,39,,,,,,,,,,,,,,,,bars/038.png,bars/mask001.png,,,,,,,,,,,,0,2,,,,,,,0,6,0,7,,,,,,,,,,,676.6201,677.1209,677.3712,680.3074,space,2.9199,,680.3075,54,31,681.3075,681.3075,682.1256,space,0.801,,0,46,46,46,1,165,70,,,,,,,,
,,60871d7dcbf3bd9bf2c40be8,65af559cac09f8926668b570,2024-01-23_07h59.48.104,bars,2023.2.3,Win32,59.88023952,657b66ea316d21385b68909f,,,,,,,,,,,682.126,683.1259,,,683.6269,683.8779,,29,209,,,,,,,,,,,,,,,,bars/035.png,bars/mask008.png,,,,,,,,,,,,0,2,,,,,,,2,8,3,7,,,,,,,,,,,683.1259,683.6269,683.8779,686.6476,space,2.7536,,686.6476,34,31,687.6482,687.6482,687.7144,space,0.0505,,0,47,47,47,1,175,60,,,,,,,,
,,60871d7dcbf3bd9bf2c40be8,65af559cac09f8926668b570,2024-01-23_07h59.48.104,bars,2023.2.3,Win32,59.88023952,657b66ea316d21385b68909f,,,,,,,,,,,687.7146,688.7159,,,689.2161,689.466,,149,-31,,,,,,,,,,,,,,,,bars/024.png,bars/mask003.png,,,,,,,,,,,,2,2,,,,,,,0,6,0,5,,,,,,,,,,,688.7159,689.216,689.466,692.5857,space,3.1027,,692.5857,29,21,693.5875,693.5875,694.3048,space,0.701,,0,48,48,48,1,120,170,,,,,,,,
,,60871d7dcbf3bd9bf2c40be8,65af559cac09f8926668b570,2024-01-23_07h59.48.104,bars,2023.2.3,Win32,59.88023952,657b66ea316d21385b68909f,,,,,,,,,,,694.305,695.3045,,,695.8058,696.0568,,14,194,,,,,,,,,,,,,,,,bars/023.png,bars/mask006.png,,,,,,,,,,,,1,1,,,,,,,0,8,1,7,,,,,,,,,,,695.3046,695.8058,696.0568,700.6771,space,4.6049,,700.6771,6,79,701.6789,701.6789,703.4638,space,1.7691,,0,49,49,49,1,20,115,,,,,,,,
,,60871d7dcbf3bd9bf2c40be8,65af559cac09f8926668b570,2024-01-23_07h59.48.104,bars,2023.2.3,Win32,59.88023952,657b66ea316d21385b68909f,,,,,,,,,,,,,,,,,,,,,,,,,,,,,,,,,,,,,,,,,,,,,,,,,,,,,,,,,,,,,,,,,,,,,,,,,,,,,,,,,,,,,,,,,,,,,703.4642,763.4568,0,0,0,2,1,sequence_tables/blk013.csv
,,60871d7dcbf3bd9bf2c40be8,65af559cac09f8926668b570,2024-01-23_07h59.48.104,bars,2023.2.3,Win32,59.88023952,657b66ea316d21385b68909f,,,,,,,,,,,768.0365,769.0285,,,769.5287,769.78,,103,103,,,,,,,,,,,,,,,,bars/038.png,bars/mask000.png,,,,,,,,,,,,0,2,,,,,,,2,7,0,6,,,,,,763.4616,768.0279,space,4.5552,,769.0285,769.5287,769.7801,773.1825,space,3.386,,773.1825,62,33,774.1833,774.1833,774.1889,,,,0,0,0,0,1,165,70,,,,,,,,
,,60871d7dcbf3bd9bf2c40be8,65af559cac09f8926668b570,2024-01-23_07h59.48.104,bars,2023.2.3,Win32,59.88023952,657b66ea316d21385b68909f,,,,,,,,,,,774.189,775.1854,,,775.6858,775.9355,,143,143,,,,,,,,,,,,,,,,bars/049.png,bars/mask005.png,,,,,,,,,,,,0,1,,,,,,,0,9,1,10,,,,,,,,,,,775.1854,775.6858,775.9356,782.3423,space,6.3904,,782.3423,17,28,783.3432,783.3432,783.3486,,,,0,1,1,1,1,160,115,,,,,,,,
,,60871d7dcbf3bd9bf2c40be8,65af559cac09f8926668b570,2024-01-23_07h59.48.104,bars,2023.2.3,Win32,59.88023952,657b66ea316d21385b68909f,,,,,,,,,,,783.3486,784.3441,,,784.844,785.0942,,105,105,,,,,,,,,,,,,,,,bars/026.png,bars/mask009.png,,,,,,,,,,,,2,2,,,,,,,0,7,1,7,,,,,,,,,,,784.3441,784.8439,785.0942,788.3811,space,3.27,,788.3811,70,20,789.3817,789.3817,789.3873,,,,0,2,2,2,1,35,85,,,,,,,,
,,60871d7dcbf3bd9bf2c40be8,65af559cac09f8926668b570,2024-01-23_07h59.48.104,bars,2023.2.3,Win32,59.88023952,657b66ea316d21385b68909f,,,,,,,,,,,789.3874,790.3836,,,790.8838,791.1336,,108,108,,,,,,,,,,,,,,,,bars/041.png,bars/mask009.png,,,,,,,,,,,,2,2,,,,,,,2,9,1,9,,,,,,,,,,,790.3836,790.8838,791.1336,795.355,space,4.2042,,795.355,88,23,796.3557,796.3558,796.3609,,,,0,3,3,3,1,20,85,,,,,,,,
,,60871d7dcbf3bd9bf2c40be8,65af559cac09f8926668b570,2024-01-23_07h59.48.104,bars,2023.2.3,Win32,59.88023952,657b66ea316d21385b68909f,,,,,,,,,,,796.3609,797.3572,,,797.8579,798.1077,,170,170,,,,,,,,,,,,,,,,bars/024.png,bars/mask000.png,,,,,,,,,,,,10,2,,,,,,,4,10,4,10,,,,,,,,,,,797.3572,797.8579,798.1077,800.6941,space,2.5696,,800.6941,50,0,801.6948,801.6948,801.6953,,,,0,4,4,4,1,120,170,,,,,,,,
,,60871d7dcbf3bd9bf2c40be8,65af559cac09f8926668b570,2024-01-23_07h59.48.104,bars,2023.2.3,Win32,59.88023952,657b66ea316d21385b68909f,,,,,,,,,,,801.6955,802.6955,,,803.1964,803.4465,,111,111,,,,,,,,,,,,,,,,bars/028.png,bars/mask003.png,,,,,,,,,,,,7,2,,,,,,,2,10,0,10,,,,,,,,,,,802.6956,803.1964,803.4465,806.232,space,2.769,,806.232,66,9,807.2335,807.2335,807.2383,,,,0,5,5,5,1,45,120,,,,,,,,
,,60871d7dcbf3bd9bf2c40be8,65af559cac09f8926668b570,2024-01-23_07h59.48.104,bars,2023.2.3,Win32,59.88023952,657b66ea316d21385b68909f,,,,,,,,,,,807.2384,808.2348,,,808.7351,808.9849,,23,23,,,,,,,,,,,,,,,,bars/035.png,bars/mask007.png,,,,,,,,,,,,0,1,,,,,,,4,10,5,9,,,,,,,,,,,808.2349,808.7351,808.985,811.7551,space,2.7534,,811.7552,28,37,812.7553,812.7553,812.7611,,,,0,6,6,6,1,175,60,,,,,,,,
,,60871d7dcbf3bd9bf2c40be8,65af559cac09f8926668b570,2024-01-23_07h59.48.104,bars,2023.2.3,Win32,59.88023952,657b66ea316d21385b68909f,,,,,,,,,,,812.7612,813.7565,,,814.2574,814.5073,,44,44,,,,,,,,,,,,,,,,bars/038.png,bars/mask006.png,,,,,,,,,,,,1,2,,,,,,,2,8,2,8,,,,,,,,,,,813.7565,814.2573,814.5073,816.5933,space,2.0699,,816.5933,59,26,817.5942,817.5942,817.5953,,,,0,7,7,7,1,165,70,,,,,,,,
,,60871d7dcbf3bd9bf2c40be8,65af559cac09f8926668b570,2024-01-23_07h59.48.104,bars,2023.2.3,Win32,59.88023952,657b66ea316d21385b68909f,,,,,,,,,,,817.5954,818.5941,,,819.0956,819.345,,53,53,,,,,,,,,,,,,,,,bars/029.png,bars/mask009.png,,,,,,,,,,,,7,2,,,,,,,0,10,0,10,,,,,,,,,,,818.5942,819.0956,819.3451,823.8665,space,4.5043,,823.8666,37,8,824.8675,824.8675,824.8723,,,,0,8,8,8,1,90,45,,,,,,,,
,,60871d7dcbf3bd9bf2c40be8,65af559cac09f8926668b570,2024-01-23_07h59.48.104,bars,2023.2.3,Win32,59.88023952,657b66ea316d21385b68909f,,,,,,,,,,,824.8724,825.8682,,,826.3695,826.6199,,28,28,,,,,,,,,,,,,,,,bars/016.png,bars/mask005.png,,,,,,,,,,,,1,1,,,,,,,2,8,2,8,,,,,,,,,,,825.8682,826.3695,826.6199,829.406,space,2.7703,,829.4061,12,43,830.4059,830.406,830.4116,,,,0,9,9,9,1,40,165,,,,,,,,
,,60871d7dcbf3bd9bf2c40be8,65af559cac09f8926668b570,2024-01-23_07h59.48.104,bars,2023.2.3,Win32,59.88023952,657b66ea316d21385b68909f,,,,,,,,,,,830.4117,831.4081,,,831.9084,832.1587,,41,41,,,,,,,,,,,,,,,,bars/035.png,bars/mask003.png,,,,,,,,,,,,4,2,,,,,,,0,10,0,10,,,,,,,,,,,831.4082,831.9083,832.1588,835.945,space,3.7706,,835.945,46,19,836.9463,836.9463,836.9518,,,,0,10,10,10,1,175,60,,,,,,,,
,,60871d7dcbf3bd9bf2c40be8,65af559cac09f8926668b570,2024-01-23_07h59.48.104,bars,2023.2.3,Win32,59.88023952,657b66ea316d21385b68909f,,,,,,,,,,,836.952,837.9478,,,838.4479,838.6979,,110,110,,,,,,,,,,,,,,,,bars/006.png,bars/mask002.png,,,,,,,,,,,,5,2,,,,,,,0,8,1,8,,,,,,,,,,,837.9478,838.4478,838.6979,841.3677,space,2.6526,,841.3678,75,10,842.3689,842.369,842.3738,,,,0,11,11,11,1,35,100,,,,,,,,
,,60871d7dcbf3bd9bf2c40be8,65af559cac09f8926668b570,2024-01-23_07h59.48.104,bars,2023.2.3,Win32,59.88023952,657b66ea316d21385b68909f,,,,,,,,,,,842.3739,843.3687,,,843.8702,844.1205,,52,52,,,,,,,,,,,,,,,,bars/010.png,bars/mask001.png,,,,,,,,,,,,5,2,,,,,,,0,6,1,5,,,,,,,,,,,843.3687,843.8702,844.1205,848.0577,space,3.9203,,848.0577,67,3,849.0584,849.0584,849.0632,,,,0,12,12,12,1,165,55,,,,,,,,
,,60871d7dcbf3bd9bf2c40be8,65af559cac09f8926668b570,2024-01-23_07h59.48.104,bars,2023.2.3,Win32,59.88023952,657b66ea316d21385b68909f,,,,,,,,,,,849.0634,850.0602,,,850.5601,850.8105,,117,117,,,,,,,,,,,,,,,,bars/009.png,bars/mask005.png,,,,,,,,,,,,1,2,,,,,,,2,4,3,2,,,,,,,,,,,850.0602,850.56,850.8105,854.7969,space,3.9709,,854.7969,78,12,855.7987,855.7988,855.8036,,,,0,13,13,13,1,15,105,,,,,,,,
,,60871d7dcbf3bd9bf2c40be8,65af559cac09f8926668b570,2024-01-23_07h59.48.104,bars,2023.2.3,Win32,59.88023952,657b66ea316d21385b68909f,,,,,,,,,,,855.8038,856.7997,,,857.3003,857.5504,,72,72,,,,,,,,,,,,,,,,bars/026.png,bars/mask000.png,,,,,,,,,,,,1,2,,,,,,,0,2,0,1,,,,,,,,,,,856.7997,857.3003,857.5505,861.6047,space,4.0375,,861.6047,37,13,862.6057,862.6058,862.6106,,,,0,14,14,14,1,35,85,,,,,,,,
,,60871d7dcbf3bd9bf2c40be8,65af559cac09f8926668b570,2024-01-23_07h59.48.104,bars,2023.2.3,Win32,59.88023952,657b66ea316d21385b68909f,,,,,,,,,,,862.6107,863.6066,,,864.1071,864.3573,,156,156,,,,,,,,,,,,,,,,bars/016.png,bars/mask006.png,,,,,,,,,,,,1,2,,,,,,,2,0,2,1,,,,,,,,,,,863.6066,864.1071,864.3573,867.4601,space,3.0865,,867.4601,64,9,868.4606,868.4606,868.4655,,,,0,15,15,15,1,40,165,,,,,,,,
,,60871d7dcbf3bd9bf2c40be8,65af559cac09f8926668b570,2024-01-23_07h59.48.104,bars,2023.2.3,Win32,59.88023952,657b66ea316d21385b68909f,,,,,,,,,,,868.4657,869.4616,,,869.9616,870.2121,,138,138,,,,,,,,,,,,,,,,bars/003.png,bars/mask001.png,,,,,,,,,,,,3,2,,,,,,,0,2,0,3,,,,,,,,,,,869.4616,869.9615,870.2121,871.9809,space,1.7518,,871.9809,67,2,872.9812,872.9812,872.986,,,,0,16,16,16,1,25,140,,,,,,,,
,,60871d7dcbf3bd9bf2c40be8,65af559cac09f8926668b570,2024-01-23_07h59.48.104,bars,2023.2.3,Win32,59.88023952,657b66ea316d21385b68909f,,,,,,,,,,,872.9862,873.9836,,,874.4835,874.7342,,118,118,,,,,,,,,,,,,,,,bars/026.png,bars/mask003.png,,,,,,,,,,,,0,2,,,,,,,2,0,2,0,,,,,,,,,,,873.9836,874.4834,874.7343,877.1867,space,2.4358,,877.1867,83,33,878.1854,878.1854,878.1904,,,,0,17,17,17,1,35,85,,,,,,,,
,,60871d7dcbf3bd9bf2c40be8,65af559cac09f8926668b570,2024-01-23_07h59.48.104,bars,2023.2.3,Win32,59.88023952,657b66ea316d21385b68909f,,,,,,,,,,,878.1905,879.188,,,879.6886,879.9387,,151,151,,,,,,,,,,,,,,,,bars/044.png,bars/mask001.png,,,,,,,,,,,,1,2,,,,,,,4,2,5,1,,,,,,,,,,,879.1881,879.6886,879.9387,883.2091,space,3.2536,,883.2091,76,4,884.2096,884.2097,884.2149,,,,0,18,18,18,1,75,155,,,,,,,,
,,60871d7dcbf3bd9bf2c40be8,65af559cac09f8926668b570,2024-01-23_07h59.48.104,bars,2023.2.3,Win32,59.88023952,657b66ea316d21385b68909f,,,,,,,,,,,884.215,885.2108,,,885.7121,885.9619,,145,145,,,,,,,,,,,,,,,,bars/017.png,bars/mask002.png,,,,,,,,,,,,3,1,,,,,,,2,4,3,5,,,,,,,,,,,885.2108,885.7121,885.9619,890.2326,space,4.254,,890.2326,0,80,891.234,891.234,891.2397,,,,0,19,19,19,1,145,45,,,,,,,,
,,60871d7dcbf3bd9bf2c40be8,65af559cac09f8926668b570,2024-01-23_07h59.48.104,bars,2023.2.3,Win32,59.88023952,657b66ea316d21385b68909f,,,,,,,,,,,891.2398,892.2348,,,892.7355,892.9849,,147,147,,,,,,,,,,,,,,,,bars/037.png,bars/mask009.png,,,,,,,,,,,,4,1,,,,,,,4,6,4,8,,,,,,,,,,,892.2348,892.7355,892.9849,894.7034,space,1.7014,,894.7034,3,42,895.7053,895.7053,895.7101,,,,0,20,20,20,1,150,105,,,,,,,,
,,60871d7dcbf3bd9bf2c40be8,65af559cac09f8926668b570,2024-01-23_07h59.48.104,bars,2023.2.3,Win32,59.88023952,657b66ea316d21385b68909f,,,,,,,,,,,895.7102,896.7056,,,897.2066,897.4562,,163,163,,,,,,,,,,,,,,,,bars/032.png,bars/mask009.png,,,,,,,,,,,,0,2,,,,,,,2,4,3,4,,,,,,,,,,,896.7057,897.2066,897.4563,898.9413,space,1.4677,,898.9413,38,37,899.9417,899.9417,899.9428,,,,0,21,21,21,1,125,20,,,,,,,,
,,60871d7dcbf3bd9bf2c40be8,65af559cac09f8926668b570,2024-01-23_07h59.48.104,bars,2023.2.3,Win32,59.88023952,657b66ea316d21385b68909f,,,,,,,,,,,899.943,900.9432,,,901.4443,901.6942,,117,117,,,,,,,,,,,,,,,,bars/025.png,bars/mask002.png,,,,,,,,,,,,2,1,,,,,,,4,2,3,2,,,,,,,,,,,900.9432,901.4443,901.6943,905.2977,space,3.5867,,905.2978,12,77,906.2987,906.2987,906.3042,,,,0,22,22,22,1,105,40,,,,,,,,
,,60871d7dcbf3bd9bf2c40be8,65af559cac09f8926668b570,2024-01-23_07h59.48.104,bars,2023.2.3,Win32,59.88023952,657b66ea316d21385b68909f,,,,,,,,,,,906.3043,907.2978,,,907.8005,908.0508,,133,133,,,,,,,,,,,,,,,,bars/030.png,bars/mask003.png,,,,,,,,,,,,1,1,,,,,,,2,4,1,3,,,,,,,,,,,907.2978,907.8005,908.0508,911.6375,space,3.5698,,911.6375,7,68,912.6388,912.6389,912.6439,,,,0,23,23,23,1,140,65,,,,,,,,
,,60871d7dcbf3bd9bf2c40be8,65af559cac09f8926668b570,2024-01-23_07h59.48.104,bars,2023.2.3,Win32,59.88023952,657b66ea316d21385b68909f,,,,,,,,,,,912.6439,913.6389,,,914.1404,914.3902,,40,40,,,,,,,,,,,,,,,,bars/016.png,bars/mask003.png,,,,,,,,,,,,0,1,,,,,,,0,2,0,3,,,,,,,,,,,913.6389,914.1403,914.3902,918.5778,space,4.1706,,918.5779,0,55,919.5789,919.5789,919.5838,,,,0,24,24,24,1,40,165,,,,,,,,
,,60871d7dcbf3bd9bf2c40be8,65af559cac09f8926668b570,2024-01-23_07h59.48.104,bars,2023.2.3,Win32,59.88023952,657b66ea316d21385b68909f,,,,,,,,,,,919.5839,920.5791,,,921.0801,921.3305,,111,111,,,,,,,,,,,,,,,,bars/029.png,bars/mask003.png,,,,,,,,,,,,1,1,,,,,,,2,0,4,0,,,,,,,,,,,920.5791,921.0801,921.3305,924.3675,space,3.0201,,924.3675,21,66,925.368,925.3681,925.3728,,,,0,25,25,25,1,90,45,,,,,,,,
,,60871d7dcbf3bd9bf2c40be8,65af559cac09f8926668b570,2024-01-23_07h59.48.104,bars,2023.2.3,Win32,59.88023952,657b66ea316d21385b68909f,,,,,,,,,,,925.373,926.369,,,926.8697,927.1196,,131,131,,,,,,,,,,,,,,,,bars/021.png,bars/mask009.png,,,,,,,,,,,,0,1,,,,,,,0,0,1,1,,,,,,,,,,,926.369,926.8697,927.1196,931.1242,space,3.988,,931.1242,24,61,932.1249,932.1249,932.1298,,,,0,26,26,26,1,155,70,,,,,,,,
,,60871d7dcbf3bd9bf2c40be8,65af559cac09f8926668b570,2024-01-23_07h59.48.104,bars,2023.2.3,Win32,59.88023952,657b66ea316d21385b68909f,,,,,,,,,,,932.1299,933.1259,,,933.626,933.8763,,42,42,,,,,,,,,,,,,,,,bars/009.png,bars/mask002.png,,,,,,,,,,,,0,1,,,,,,,2,0,3,0,,,,,,,,,,,933.1259,933.626,933.8764,936.0948,space,2.202,,936.0949,27,63,937.0961,937.0961,937.0965,,,,0,27,27,27,1,15,105,,,,,,,,
,,60871d7dcbf3bd9bf2c40be8,65af559cac09f8926668b570,2024-01-23_07h59.48.104,bars,2023.2.3,Win32,59.88023952,657b66ea316d21385b68909f,,,,,,,,,,,937.0966,938.0973,,,938.5972,938.8475,,12,12,,,,,,,,,,,,,,,,bars/003.png,bars/mask004.png,,,,,,,,,,,,0,1,,,,,,,0,2,0,2,,,,,,,,,,,938.0973,938.5972,938.8475,944.1704,space,5.3058,,944.1704,13,52,945.171,945.171,945.1758,,,,0,28,28,28,1,25,140,,,,,,,,
,,60871d7dcbf3bd9bf2c40be8,65af559cac09f8926668b570,2024-01-23_07h59.48.104,bars,2023.2.3,Win32,59.88023952,657b66ea316d21385b68909f,,,,,,,,,,,945.176,946.172,,,946.6727,946.9231,,24,204,,,,,,,,,,,,,,,,bars/007.png,bars/mask003.png,,,,,,,,,,,,0,1,,,,,,,0,0,0,0,,,,,,,,,,,946.172,946.6727,946.9231,950.1425,space,3.203,,950.1425,29,31,951.1434,951.1435,951.1483,,,,0,29,29,29,1,175,55,,,,,,,,
,,60871d7dcbf3bd9bf2c40be8,65af559cac09f8926668b570,2024-01-23_07h59.48.104,bars,2023.2.3,Win32,59.88023952,657b66ea316d21385b68909f,,,,,,,,,,,951.1485,952.1443,,,952.6452,952.8956,,147,147,,,,,,,,,,,,,,,,bars/036.png,bars/mask009.png,,,,,,,,,,,,1,1,,,,,,,0,0,1,0,,,,,,,,,,,952.1444,952.6452,952.8956,954.464,space,1.5522,,954.464,2,53,955.4646,955.4646,955.4697,,,,0,30,30,30,1,145,20,,,,,,,,
,,60871d7dcbf3bd9bf2c40be8,65af559cac09f8926668b570,2024-01-23_07h59.48.104,bars,2023.2.3,Win32,59.88023952,657b66ea316d21385b68909f,,,,,,,,,,,955.4698,956.4655,,,956.964,957.2155,,152,152,,,,,,,,,,,,,,,,bars/018.png,bars/mask004.png,,,,,,,,,,,,2,1,,,,,,,2,0,2,2,,,,,,,,,,,956.4655,956.9639,957.2155,959.5188,space,2.2858,,959.5188,2,62,960.5177,960.5178,960.5227,,,,0,31,31,31,1,150,90,,,,,,,,
,,60871d7dcbf3bd9bf2c40be8,65af559cac09f8926668b570,2024-01-23_07h59.48.104,bars,2023.2.3,Win32,59.88023952,657b66ea316d21385b68909f,,,,,,,,,,,960.5227,961.5207,,,962.0212,962.2715,,20,200,,,,,,,,,,,,,,,,bars/033.png,bars/mask000.png,,,,,,,,,,,,3,1,,,,,,,4,2,4,1,,,,,,,,,,,961.5208,962.0211,962.2715,964.9407,space,2.6527,,964.9407,5,45,965.9417,965.9418,965.9468,,,,0,32,32,32,1,25,155,,,,,,,,
,,60871d7dcbf3bd9bf2c40be8,65af559cac09f8926668b570,2024-01-23_07h59.48.104,bars,2023.2.3,Win32,59.88023952,657b66ea316d21385b68909f,,,,,,,,,,,965.9469,966.9428,,,967.4437,967.6933,,167,-13,,,,,,,,,,,,,,,,bars/035.png,bars/mask003.png,,,,,,,,,,,,5,1,,,,,,,6,4,7,4,,,,,,,,,,,966.9428,967.4437,967.6933,971.4476,space,3.7376,,971.4476,8,73,972.4483,972.4483,972.4531,,,,0,33,33,33,1,175,60,,,,,,,,
,,60871d7dcbf3bd9bf2c40be8,65af559cac09f8926668b570,2024-01-23_07h59.48.104,bars,2023.2.3,Win32,59.88023952,657b66ea316d21385b68909f,,,,,,,,,,,972.4533,973.4492,,,973.9499,974.1997,,23,203,,,,,,,,,,,,,,,,bars/043.png,bars/mask000.png,,,,,,,,,,,,6,1,,,,,,,8,2,8,2,,,,,,,,,,,973.4492,973.9499,974.1997,979.8557,space,5.6392,,979.8557,7,73,980.8565,980.8565,980.8614,,,,0,34,34,34,1,30,130,,,,,,,,
,,60871d7dcbf3bd9bf2c40be8,65af559cac09f8926668b570,2024-01-23_07h59.48.104,bars,2023.2.3,Win32,59.88023952,657b66ea316d21385b68909f,,,,,,,,,,,980.8615,981.8573,,,982.358,982.6086,,60,60,,,,,,,,,,,,,,,,bars/028.png,bars/mask001.png,,,,,,,,,,,,5,1,,,,,,,10,0,10,0,,,,,,,,,,,981.8573,982.358,982.6086,984.6613,space,2.0366,,984.6613,15,60,985.6613,985.6613,985.6618,,,,0,35,35,35,1,45,120,,,,,,,,
,,60871d7dcbf3bd9bf2c40be8,65af559cac09f8926668b570,2024-01-23_07h59.48.104,bars,2023.2.3,Win32,59.88023952,657b66ea316d21385b68909f,,,,,,,,,,,985.6619,986.6625,,,987.163,987.4128,,159,159,,,,,,,,,,,,,,,,bars/047.png,bars/mask005.png,,,,,,,,,,,,0,1,,,,,,,8,0,9,0,,,,,,,,,,,986.6625,987.163,987.4129,990.7659,space,3.3362,,990.7659,36,89,991.7673,991.7674,991.7721,,,,0,36,36,36,1,15,70,,,,,,,,
,,60871d7dcbf3bd9bf2c40be8,65af559cac09f8926668b570,2024-01-23_07h59.48.104,bars,2023.2.3,Win32,59.88023952,657b66ea316d21385b68909f,,,,,,,,,,,991.7723,992.7682,,,993.2689,993.5189,,141,-39,,,,,,,,,,,,,,,,bars/017.png,bars/mask001.png,,,,,,,,,,,,8,1,,,,,,,10,2,9,3,,,,,,,,,,,992.7683,993.2689,993.5189,997.7895,space,4.254,,997.7895,4,84,998.7907,998.7907,998.7958,,,,0,37,37,37,1,145,45,,,,,,,,
,,60871d7dcbf3bd9bf2c40be8,65af559cac09f8926668b570,2024-01-23_07h59.48.104,bars,2023.2.3,Win32,59.88023952,657b66ea316d21385b68909f,,,,,,,,,,,998.7959,999.7916,,,1000.2927,1000.5428,,114,114,,,,,,,,,,,,,,,,bars/002.png,bars/mask003.png,,,,,,,,,,,,4,1,,,,,,,8,0,9,0,,,,,,,,,,,999.7916,1000.2927,1000.5428,1004.5306,space,3.9702,,1004.5306,16,29,1005.5314,1005.5314,1005.5362,,,,0,38,38,38,1,130,85,,,,,,,,
,,60871d7dcbf3bd9bf2c40be8,65af559cac09f8926668b570,2024-01-23_07h59.48.104,bars,2023.2.3,Win32,59.88023952,657b66ea316d21385b68909f,,,,,,,,,,,1005.5363,1006.5323,,,1007.0326,1007.283,,115,115,,,,,,,,,,,,,,,,bars/042.png,bars/mask006.png,,,,,,,,,,,,0,1,,,,,,,10,0,10,0,,,,,,,,,,,1006.5323,1007.0326,1007.283,1009.4847,space,2.1852,,1009.4847,30,40,1010.4861,1010.4861,1010.4908,,,,0,39,39,39,1,145,75,,,,,,,,
,,60871d7dcbf3bd9bf2c40be8,65af559cac09f8926668b570,2024-01-23_07h59.48.104,bars,2023.2.3,Win32,59.88023952,657b66ea316d21385b68909f,,,,,,,,,,,1010.491,1011.4871,,,1011.9878,1012.2381,,78,-102,,,,,,,,,,,,,,,,bars/015.png,bars/mask005.png,,,,,,,,,,,,0,1,,,,,,,10,0,10,0,,,,,,,,,,,1011.4871,1011.9877,1012.2382,1016.9094,space,4.6551,,1016.9095,32,82,1017.9103,1017.9103,1017.9151,,,,0,40,40,40,1,110,160,,,,,,,,
,,60871d7dcbf3bd9bf2c40be8,65af559cac09f8926668b570,2024-01-23_07h59.48.104,bars,2023.2.3,Win32,59.88023952,657b66ea316d21385b68909f,,,,,,,,,,,1017.9153,1018.9111,,,1019.4118,1019.6616,,131,131,,,,,,,,,,,,,,,,bars/018.png,bars/mask004.png,,,,,,,,,,,,2,1,,,,,,,8,0,6,0,,,,,,,,,,,1018.9112,1019.4118,1019.6616,1022.2144,space,2.5359,,1022.2145,19,41,1023.2155,1023.2155,1023.2203,,,,0,41,41,41,1,150,90,,,,,,,,
,,60871d7dcbf3bd9bf2c40be8,65af559cac09f8926668b570,2024-01-23_07h59.48.104,bars,2023.2.3,Win32,59.88023952,657b66ea316d21385b68909f,,,,,,,,,,,1023.2204,1024.216,,,1024.716,1024.9669,,21,21,,,,,,,,,,,,,,,,bars/023.png,bars/mask005.png,,,,,,,,,,,,10,1,,,,,,,10,2,10,3,,,,,,,,,,,1024.216,1024.7159,1024.9669,1027.3191,space,2.3355,,1027.3191,1,86,1028.3202,1028.3202,1028.3251,,,,0,42,42,42,1,20,115,,,,,,,,
,,60871d7dcbf3bd9bf2c40be8,65af559cac09f8926668b570,2024-01-23_07h59.48.104,bars,2023.2.3,Win32,59.88023952,657b66ea316d21385b68909f,,,,,,,,,,,1028.3252,1029.3193,,,1029.8222,1030.0723,,23,23,,,,,,,,,,,,,,,,bars/004.png,bars/mask008.png,,,,,,,,,,,,8,1,,,,,,,8,4,9,4,,,,,,,,,,,1029.3193,1029.8221,1030.0723,1032.2745,space,2.1858,,1032.2745,2,78,1033.2754,1033.2755,1033.2804,,,,0,43,43,43,1,25,125,,,,,,,,
,,60871d7dcbf3bd9bf2c40be8,65af559cac09f8926668b570,2024-01-23_07h59.48.104,bars,2023.2.3,Win32,59.88023952,657b66ea316d21385b68909f,,,,,,,,,,,1033.2804,1034.2765,,,1034.7766,1035.0271,,112,112,,,,,,,,,,,,,,,,bars/031.png,bars/mask004.png,,,,,,,,,,,,7,1,,,,,,,10,2,9,1,,,,,,,,,,,1034.2766,1034.7765,1035.0271,1039.9658,space,4.9221,,1039.9658,8,77,1040.9661,1040.9661,1040.971,,,,0,44,44,44,1,120,35,,,,,,,,
,,60871d7dcbf3bd9bf2c40be8,65af559cac09f8926668b570,2024-01-23_07h59.48.104,bars,2023.2.3,Win32,59.88023952,657b66ea316d21385b68909f,,,,,,,,,,,1040.9711,1041.9673,,,1042.468,1042.7173,,125,125,,,,,,,,,,,,,,,,bars/032.png,bars/mask003.png,,,,,,,,,,,,8,1,,,,,,,8,0,8,0,,,,,,,,,,,1041.9673,1042.468,1042.7173,1045.5873,space,2.8529,,1045.5873,0,75,1046.5878,1046.5879,1046.5933,,,,0,45,45,45,1,125,20,,,,,,,,
,,60871d7dcbf3bd9bf2c40be8,65af559cac09f8926668b570,2024-01-23_07h59.48.104,bars,2023.2.3,Win32,59.88023952,657b66ea316d21385b68909f,,,,,,,,,,,1046.5934,1047.5887,,,1048.0899,1048.3405,,117,-63,,,,,,,,,,,,,,,,bars/031.png,bars/mask005.png,,,,,,,,,,,,7,1,,,,,,,6,0,8,1,,,,,,,,,,,1047.5888,1048.0899,1048.3405,1052.944,space,4.5878,,1052.944,3,82,1053.9461,1053.9461,1053.951,,,,0,46,46,46,1,120,35,,,,,,,,
,,60871d7dcbf3bd9bf2c40be8,65af559cac09f8926668b570,2024-01-23_07h59.48.104,bars,2023.2.3,Win32,59.88023952,657b66ea316d21385b68909f,,,,,,,,,,,1053.9511,1054.9471,,,1055.4478,1055.697,,15,195,,,,,,,,,,,,,,,,bars/003.png,bars/mask006.png,,,,,,,,,,,,5,1,,,,,,,8,0,7,0,,,,,,,,,,,1054.9471,1055.4478,1055.697,1059.9515,space,4.238,,1059.9515,10,55,1060.9527,1060.9528,1060.9576,,,,0,47,47,47,1,25,140,,,,,,,,
,,60871d7dcbf3bd9bf2c40be8,65af559cac09f8926668b570,2024-01-23_07h59.48.104,bars,2023.2.3,Win32,59.88023952,657b66ea316d21385b68909f,,,,,,,,,,,1060.9577,1061.9543,,,1062.4546,1062.7049,,150,-30,,,,,,,,,,,,,,,,bars/040.png,bars/mask000.png,,,,,,,,,,,,4,1,,,,,,,6,2,6,3,,,,,,,,,,,1061.9543,1062.4545,1062.7049,1066.4081,space,3.6871,,1066.4081,10,35,1067.4096,1067.4096,1067.4144,,,,0,48,48,48,1,140,5,,,,,,,,
,,60871d7dcbf3bd9bf2c40be8,65af559cac09f8926668b570,2024-01-23_07h59.48.104,bars,2023.2.3,Win32,59.88023952,657b66ea316d21385b68909f,,,,,,,,,,,1067.4145,1068.41,,,1068.9109,1069.1612,,153,-27,,,,,,,,,,,,,,,,bars/005.png,bars/mask000.png,,,,,,,,,,,,2,2,,,,,,,4,4,4,3,,,,,,,,,,,1068.41,1068.9109,1069.1612,1071.7131,space,2.5353,,1071.7131,37,13,1072.7148,1072.7148,1072.7201,,,,0,49,49,49,1,10,140,,,,,,,,
,,60871d7dcbf3bd9bf2c40be8,65af559cac09f8926668b570,2024-01-23_07h59.48.104,bars,2023.2.3,Win32,59.88023952,657b66ea316d21385b68909f,,,,,,,,,,,,,,,,,,,,,,,,,,,,,,,,,,,,,,,,,,,,,,,,,,,,,,,,,,,,,,,,,,,,,,,,,,,,,,,,,,,,,,,,,,,,,1072.7202,1132.7078,0,1,1,4,1,sequence_tables/blk019.csv
,,60871d7dcbf3bd9bf2c40be8,65af559cac09f8926668b570,2024-01-23_07h59.48.104,bars,2023.2.3,Win32,59.88023952,657b66ea316d21385b68909f,,,,,,,,,,,1136.7153,1137.7126,,,1138.2123,1138.4636,,56,56,,,,,,,,,,,,,,,,bars/001.png,bars/mask001.png,,,,,,,,,,,,0,2,,,,,,,1,9,1,9,,,,,,1132.7127,1136.7115,space,3.987,,1137.7126,1138.2123,1138.4637,1141.1832,space,2.7036,,1141.1833,74,29,1142.1838,1142.1838,1142.1887,,,,0,0,0,0,1,130,85,,,,,,,,
,,60871d7dcbf3bd9bf2c40be8,65af559cac09f8926668b570,2024-01-23_07h59.48.104,bars,2023.2.3,Win32,59.88023952,657b66ea316d21385b68909f,,,,,,,,,,,1142.1889,1143.1849,,,1143.685,1143.9355,,31,31,,,,,,,,,,,,,,,,bars/004.png,bars/mask006.png,,,,,,,,,,,,1,1,,,,,,,0,10,1,10,,,,,,,,,,,1143.1849,1143.685,1143.9355,1146.6544,space,2.7022,,1146.6546,6,86,1147.6541,1147.6541,1147.6595,,,,0,1,1,1,1,25,125,,,,,,,,
,,60871d7dcbf3bd9bf2c40be8,65af559cac09f8926668b570,2024-01-23_07h59.48.104,bars,2023.2.3,Win32,59.88023952,657b66ea316d21385b68909f,,,,,,,,,,,1147.6597,1148.6559,,,1149.1554,1149.4072,,125,125,,,,,,,,,,,,,,,,bars/030.png,bars/mask002.png,,,,,,,,,,,,0,1,,,,,,,0,8,0,8,,,,,,,,,,,1148.6559,1149.1554,1149.4072,1153.8282,space,4.4037,,1153.8282,15,60,1154.8299,1154.83,1154.8349,,,,0,2,2,2,1,140,65,,,,,,,,
,,60871d7dcbf3bd9bf2c40be8,65af559cac09f8926668b570,2024-01-23_07h59.48.104,bars,2023.2.3,Win32,59.88023952,657b66ea316d21385b68909f,,,,,,,,,,,1154.835,1155.8302,,,1156.3305,1156.5809,,156,-24,,,,,,,,,,,,,,,,bars/011.png,bars/mask006.png,,,,,,,,,,,,1,1,,,,,,,2,10,1,9,,,,,,,,,,,1155.8302,1156.3304,1156.581,1159.6517,space,3.0534,,1159.6517,4,71,1160.6514,1160.6515,1160.6566,,,,0,3,3,3,1,160,85,,,,,,,,
,,60871d7dcbf3bd9bf2c40be8,65af559cac09f8926668b570,2024-01-23_07h59.48.104,bars,2023.2.3,Win32,59.88023952,657b66ea316d21385b68909f,,,,,,,,,,,1160.6567,1161.6526,,,1162.1539,1162.4039,,62,62,,,,,,,,,,,,,,,,bars/044.png,bars/mask007.png,,,,,,,,,,,,0,1,,,,,,,0,10,0,10,,,,,,,,,,,1161.6526,1162.1539,1162.4039,1165.74,space,3.3196,,1165.74,13,87,1166.7407,1166.7407,1166.7458,,,,0,4,4,4,1,75,155,,,,,,,,
,,60871d7dcbf3bd9bf2c40be8,65af559cac09f8926668b570,2024-01-23_07h59.48.104,bars,2023.2.3,Win32,59.88023952,657b66ea316d21385b68909f,,,,,,,,,,,1166.7459,1167.7427,,,1168.2427,1168.4931,,38,38,,,,,,,,,,,,,,,,bars/041.png,bars/mask007.png,,,,,,,,,,,,0,1,,,,,,,0,10,1,9,,,,,,,,,,,1167.7427,1168.2426,1168.4931,1170.478,space,1.9681,,1170.478,18,47,1171.4797,1171.4798,1171.4847,,,,0,5,5,5,1,20,85,,,,,,,,
,,60871d7dcbf3bd9bf2c40be8,65af559cac09f8926668b570,2024-01-23_07h59.48.104,bars,2023.2.3,Win32,59.88023952,657b66ea316d21385b68909f,,,,,,,,,,,1171.4848,1172.4804,,,1172.9812,1173.2307,,88,88,,,,,,,,,,,,,,,,bars/015.png,bars/mask009.png,,,,,,,,,,,,1,1,,,,,,,2,10,2,9,,,,,,,,,,,1172.4805,1172.9811,1173.2308,1175.6168,space,2.3687,,1175.6168,22,72,1176.6177,1176.6177,1176.6225,,,,0,6,6,6,1,110,160,,,,,,,,
,,60871d7dcbf3bd9bf2c40be8,65af559cac09f8926668b570,2024-01-23_07h59.48.104,bars,2023.2.3,Win32,59.88023952,657b66ea316d21385b68909f,,,,,,,,,,,1176.6226,1177.6185,,,1178.1186,1178.3689,,111,111,,,,,,,,,,,,,,,,bars/015.png,bars/mask004.png,,,,,,,,,,,,0,1,,,,,,,0,8,0,8,,,,,,,,,,,1177.6186,1178.1185,1178.369,1182.1733,space,3.7876,,1182.1734,1,49,1183.1742,1183.1742,1183.1794,,,,0,7,7,7,1,110,160,,,,,,,,
,,60871d7dcbf3bd9bf2c40be8,65af559cac09f8926668b570,2024-01-23_07h59.48.104,bars,2023.2.3,Win32,59.88023952,657b66ea316d21385b68909f,,,,,,,,,,,1183.1796,1184.1755,,,1184.6761,1184.9256,,103,103,,,,,,,,,,,,,,,,bars/031.png,bars/mask006.png,,,,,,,,,,,,0,1,,,,,,,0,10,0,9,,,,,,,,,,,1184.1755,1184.6761,1184.9257,1188.4295,space,3.4873,,1188.4296,17,68,1189.4303,1189.4303,1189.4351,,,,0,8,8,8,1,120,35,,,,,,,,
,,60871d7dcbf3bd9bf2c40be8,65af559cac09f8926668b570,2024-01-23_07h59.48.104,bars,2023.2.3,Win32,59.88023952,657b66ea316d21385b68909f,,,,,,,,,,,1189.4352,1190.4311,,,1190.9325,1191.1826,,137,-43,,,,,,,,,,,,,,,,bars/037.png,bars/mask008.png,,,,,,,,,,,,2,1,,,,,,,2,10,3,10,,,,,,,,,,,1190.4311,1190.9325,1191.1826,1194.6354,space,3.4361,,1194.6355,13,32,1195.6367,1195.6367,1195.6415,,,,0,9,9,9,1,150,105,,,,,,,,
,,60871d7dcbf3bd9bf2c40be8,65af559cac09f8926668b570,2024-01-23_07h59.48.104,bars,2023.2.3,Win32,59.88023952,657b66ea316d21385b68909f,,,,,,,,,,,1195.6416,1196.6382,,,1197.1377,1197.3889,,144,144,,,,,,,,,,,,,,,,bars/011.png,bars/mask009.png,,,,,,,,,,,,2,1,,,,,,,4,10,4,10,,,,,,,,,,,1196.6382,1197.1377,1197.3889,1199.7408,space,2.3354,,1199.7408,16,59,1200.7421,1200.7422,1200.7473,,,,0,10,10,10,1,160,85,,,,,,,,
,,60871d7dcbf3bd9bf2c40be8,65af559cac09f8926668b570,2024-01-23_07h59.48.104,bars,2023.2.3,Win32,59.88023952,657b66ea316d21385b68909f,,,,,,,,,,,1200.7475,1201.743,,,1202.2434,1202.4929,,129,129,,,,,,,,,,,,,,,,bars/018.png,bars/mask001.png,,,,,,,,,,,,1,1,,,,,,,2,10,3,10,,,,,,,,,,,1201.7431,1202.2434,1202.4929,1207.3991,space,4.889,,1207.3992,21,39,1208.3991,1208.3991,1208.4043,,,,0,11,11,11,1,150,90,,,,,,,,
,,60871d7dcbf3bd9bf2c40be8,65af559cac09f8926668b570,2024-01-23_07h59.48.104,bars,2023.2.3,Win32,59.88023952,657b66ea316d21385b68909f,,,,,,,,,,,1208.4044,1209.4007,,,1209.9014,1210.1509,,29,209,,,,,,,,,,,,,,,,bars/047.png,bars/mask004.png,,,,,,,,,,,,2,1,,,,,,,4,8,4,8,,,,,,,,,,,1209.4008,1209.9014,1210.1509,1214.3552,space,4.1875,,1214.3552,14,41,1215.3558,1215.3559,1215.3609,,,,0,12,12,12,1,15,70,,,,,,,,
,,60871d7dcbf3bd9bf2c40be8,65af559cac09f8926668b570,2024-01-23_07h59.48.104,bars,2023.2.3,Win32,59.88023952,657b66ea316d21385b68909f,,,,,,,,,,,1215.3609,1216.3568,,,1216.8585,1217.1085,,19,199,,,,,,,,,,,,,,,,bars/004.png,bars/mask008.png,,,,,,,,,,,,2,1,,,,,,,2,10,2,9,,,,,,,,,,,1216.3568,1216.8585,1217.1085,1222.1127,space,4.9879,,1222.1128,6,74,1223.1142,1223.1142,1223.1193,,,,0,13,13,13,1,25,125,,,,,,,,
,,60871d7dcbf3bd9bf2c40be8,65af559cac09f8926668b570,2024-01-23_07h59.48.104,bars,2023.2.3,Win32,59.88023952,657b66ea316d21385b68909f,,,,,,,,,,,1223.1195,1224.115,,,1224.6152,1224.8664,,36,36,,,,,,,,,,,,,,,,bars/009.png,bars/mask007.png,,,,,,,,,,,,2,1,,,,,,,4,10,5,10,,,,,,,,,,,1224.1151,1224.6152,1224.8664,1230.7544,space,5.8724,,1230.7544,21,69,1231.7566,1231.7566,1231.7617,,,,0,14,14,14,1,15,105,,,,,,,,
,,60871d7dcbf3bd9bf2c40be8,65af559cac09f8926668b570,2024-01-23_07h59.48.104,bars,2023.2.3,Win32,59.88023952,657b66ea316d21385b68909f,,,,,,,,,,,1231.7619,1232.7573,,,1233.2581,1233.5074,,124,124,,,,,,,,,,,,,,,,bars/021.png,bars/mask002.png,,,,,,,,,,,,0,1,,,,,,,6,8,6,9,,,,,,,,,,,1232.7573,1233.258,1233.5074,1239.6973,space,6.1731,,1239.6973,31,54,1240.6991,1240.6991,1240.7042,,,,0,15,15,15,1,155,70,,,,,,,,
,,60871d7dcbf3bd9bf2c40be8,65af559cac09f8926668b570,2024-01-23_07h59.48.104,bars,2023.2.3,Win32,59.88023952,657b66ea316d21385b68909f,,,,,,,,,,,1240.7043,1241.6995,,,1242.2002,1242.4501,,40,40,,,,,,,,,,,,,,,,bars/028.png,bars/mask000.png,,,,,,,,,,,,3,1,,,,,,,4,6,3,7,,,,,,,,,,,1241.6996,1242.2002,1242.4501,1246.6377,space,4.1707,,1246.6377,5,80,1247.6382,1247.6383,1247.6434,,,,0,16,16,16,1,45,120,,,,,,,,
,,60871d7dcbf3bd9bf2c40be8,65af559cac09f8926668b570,2024-01-23_07h59.48.104,bars,2023.2.3,Win32,59.88023952,657b66ea316d21385b68909f,,,,,,,,,,,1247.6435,1248.6398,,,1249.1402,1249.3901,,147,147,,,,,,,,,,,,,,,,bars/040.png,bars/mask003.png,,,,,,,,,,,,5,1,,,,,,,6,4,7,6,,,,,,,,,,,1248.6398,1249.1402,1249.3901,1252.46,space,3.0533,,1252.46,7,38,1253.4611,1253.4611,1253.4664,,,,0,17,17,17,1,140,5,,,,,,,,
,,60871d7dcbf3bd9bf2c40be8,65af559cac09f8926668b570,2024-01-23_07h59.48.104,bars,2023.2.3,Win32,59.88023952,657b66ea316d21385b68909f,,,,,,,,,,,1253.4665,1254.4621,,,1254.9628,1255.2131,,146,146,,,,,,,,,,,,,,,,bars/018.png,bars/mask005.png,,,,,,,,,,,,7,1,,,,,,,8,2,8,2,,,,,,,,,,,1254.4621,1254.9628,1255.2132,1260.0677,space,4.8386,,1260.0677,4,56,1261.0683,1261.0683,1261.0731,,,,0,18,18,18,1,150,90,,,,,,,,
,,60871d7dcbf3bd9bf2c40be8,65af559cac09f8926668b570,2024-01-23_07h59.48.104,bars,2023.2.3,Win32,59.88023952,657b66ea316d21385b68909f,,,,,,,,,,,1261.0732,1262.0689,,,1262.5682,1262.8197,,32,32,,,,,,,,,,,,,,,,bars/048.png,bars/mask004.png,,,,,,,,,,,,4,1,,,,,,,10,4,10,3,,,,,,,,,,,1262.069,1262.5681,1262.8198,1265.1395,space,2.3031,,1265.1395,18,37,1266.1404,1266.1404,1266.1455,,,,0,19,19,19,1,50,175,,,,,,,,
,,60871d7dcbf3bd9bf2c40be8,65af559cac09f8926668b570,2024-01-23_07h59.48.104,bars,2023.2.3,Win32,59.88023952,657b66ea316d21385b68909f,,,,,,,,,,,1266.1457,1267.1413,,,1267.6422,1267.8921,,118,118,,,,,,,,,,,,,,,,bars/015.png,bars/mask008.png,,,,,,,,,,,,7,1,,,,,,,10,6,10,6,,,,,,,,,,,1267.1413,1267.6421,1267.8921,1270.2109,space,2.3028,,1270.2109,8,42,1271.2101,1271.2102,1271.2155,,,,0,20,20,20,1,110,160,,,,,,,,
,,60871d7dcbf3bd9bf2c40be8,65af559cac09f8926668b570,2024-01-23_07h59.48.104,bars,2023.2.3,Win32,59.88023952,657b66ea316d21385b68909f,,,,,,,,,,,1271.2156,1272.2131,,,1272.7132,1272.9641,,111,111,,,,,,,,,,,,,,,,bars/001.png,bars/mask007.png,,,,,,,,,,,,3,1,,,,,,,10,4,9,4,,,,,,,,,,,1272.2131,1272.7132,1272.9641,1275.9667,space,2.9868,,1275.9667,19,26,1276.9678,1276.9679,1276.9727,,,,0,21,21,21,1,130,85,,,,,,,,
,,60871d7dcbf3bd9bf2c40be8,65af559cac09f8926668b570,2024-01-23_07h59.48.104,bars,2023.2.3,Win32,59.88023952,657b66ea316d21385b68909f,,,,,,,,,,,1276.9729,1277.9684,,,1278.4697,1278.7195,,34,34,,,,,,,,,,,,,,,,bars/023.png,bars/mask008.png,,,,,,,,,,,,5,1,,,,,,,10,6,10,7,,,,,,,,,,,1277.9684,1278.4696,1278.7195,1281.239,space,2.503,,1281.239,14,81,1282.2396,1282.2396,1282.24,,,,0,22,22,22,1,20,115,,,,,,,,
,,60871d7dcbf3bd9bf2c40be8,65af559cac09f8926668b570,2024-01-23_07h59.48.104,bars,2023.2.3,Win32,59.88023952,657b66ea316d21385b68909f,,,,,,,,,,,1282.2401,1283.241,,,1283.7412,1283.9912,,53,53,,,,,,,,,,,,,,,,bars/048.png,bars/mask006.png,,,,,,,,,,,,6,1,,,,,,,8,4,7,4,,,,,,,,,,,1283.241,1283.7411,1283.9912,1288.2286,space,4.2204,,1288.2286,3,58,1289.23,1289.2301,1289.235,,,,0,23,23,23,1,50,175,,,,,,,,
,,60871d7dcbf3bd9bf2c40be8,65af559cac09f8926668b570,2024-01-23_07h59.48.104,bars,2023.2.3,Win32,59.88023952,657b66ea316d21385b68909f,,,,,,,,,,,1289.2351,1290.2301,,,1290.7309,1290.9818,,148,148,,,,,,,,,,,,,,,,bars/010.png,bars/mask000.png,,,,,,,,,,,,3,1,,,,,,,6,6,6,6,,,,,,,,,,,1290.2301,1290.7309,1290.9819,1294.6693,space,3.671,,1294.6693,17,87,1295.67,1295.67,1295.6747,,,,0,24,24,24,1,165,55,,,,,,,,
,,60871d7dcbf3bd9bf2c40be8,65af559cac09f8926668b570,2024-01-23_07h59.48.104,bars,2023.2.3,Win32,59.88023952,657b66ea316d21385b68909f,,,,,,,,,,,1295.6749,1296.6707,,,1297.1711,1297.4217,,50,50,,,,,,,,,,,,,,,,bars/006.png,bars/mask007.png,,,,,,,,,,,,2,1,,,,,,,4,8,4,8,,,,,,,,,,,1296.6707,1297.1711,1297.4217,1301.9432,space,4.5056,,1301.9432,15,50,1302.944,1302.944,1302.9487,,,,0,25,25,25,1,35,100,,,,,,,,
,,60871d7dcbf3bd9bf2c40be8,65af559cac09f8926668b570,2024-01-23_07h59.48.104,bars,2023.2.3,Win32,59.88023952,657b66ea316d21385b68909f,,,,,,,,,,,1302.9488,1303.944,,,1304.4455,1304.6947,,126,126,,,,,,,,,,,,,,,,bars/042.png,bars/mask002.png,,,,,,,,,,,,1,1,,,,,,,6,6,4,6,,,,,,,,,,,1303.944,1304.4455,1304.6948,1308.9503,space,4.2388,,1308.9504,19,51,1309.9498,1309.9498,1309.9546,,,,0,26,26,26,1,145,75,,,,,,,,
,,60871d7dcbf3bd9bf2c40be8,65af559cac09f8926668b570,2024-01-23_07h59.48.104,bars,2023.2.3,Win32,59.88023952,657b66ea316d21385b68909f,,,,,,,,,,,1309.9547,1310.952,,,1311.4521,1311.7025,,47,47,,,,,,,,,,,,,,,,bars/028.png,bars/mask002.png,,,,,,,,,,,,3,1,,,,,,,4,8,3,8,,,,,,,,,,,1310.952,1311.452,1311.7026,1313.6373,space,1.9181,,1313.6373,2,73,1314.6383,1314.6384,1314.6435,,,,0,27,27,27,1,45,120,,,,,,,,
,,60871d7dcbf3bd9bf2c40be8,65af559cac09f8926668b570,2024-01-23_07h59.48.104,bars,2023.2.3,Win32,59.88023952,657b66ea316d21385b68909f,,,,,,,,,,,1314.6437,1315.64,,,1316.1398,1316.3898,,149,-31,,,,,,,,,,,,,,,,bars/015.png,bars/mask008.png,,,,,,,,,,,,3,2,,,,,,,6,6,7,5,,,,,,,,,,,1315.64,1316.1397,1316.3899,1319.5264,space,3.1196,,1319.5265,39,11,1320.5282,1320.5282,1320.5339,,,,0,28,28,28,1,110,160,,,,,,,,
,,60871d7dcbf3bd9bf2c40be8,65af559cac09f8926668b570,2024-01-23_07h59.48.104,bars,2023.2.3,Win32,59.88023952,657b66ea316d21385b68909f,,,,,,,,,,,1320.534,1321.5285,,,1322.0293,1322.2797,,143,-37,,,,,,,,,,,,,,,,bars/024.png,bars/mask001.png,,,,,,,,,,,,1,1,,,,,,,4,8,5,9,,,,,,,,,,,1321.5285,1322.0293,1322.2797,1326.1663,space,3.8701,,1326.1663,23,27,1327.1679,1327.168,1327.1736,,,,0,29,29,29,1,120,170,,,,,,,,
,,60871d7dcbf3bd9bf2c40be8,65af559cac09f8926668b570,2024-01-23_07h59.48.104,bars,2023.2.3,Win32,59.88023952,657b66ea316d21385b68909f,,,,,,,,,,,1327.1738,1328.1684,,,1328.6687,1328.9195,,110,110,,,,,,,,,,,,,,,,bars/025.png,bars/mask007.png,,,,,,,,,,,,4,1,,,,,,,6,6,5,5,,,,,,,,,,,1328.1684,1328.6686,1328.9195,1331.5888,space,2.6526,,1331.5889,5,70,1332.5901,1332.5901,1332.595,,,,0,30,30,30,1,105,40,,,,,,,,
,,60871d7dcbf3bd9bf2c40be8,65af559cac09f8926668b570,2024-01-23_07h59.48.104,bars,2023.2.3,Win32,59.88023952,657b66ea316d21385b68909f,,,,,,,,,,,1332.5952,1333.5912,,,1334.0919,1334.3411,,109,109,,,,,,,,,,,,,,,,bars/027.png,bars/mask003.png,,,,,,,,,,,,3,1,,,,,,,4,8,3,10,,,,,,,,,,,1333.5912,1334.0918,1334.3411,1338.9454,space,4.5869,,1338.9454,1,59,1339.9468,1339.9468,1339.9519,,,,0,31,31,31,1,110,50,,,,,,,,
,,60871d7dcbf3bd9bf2c40be8,65af559cac09f8926668b570,2024-01-23_07h59.48.104,bars,2023.2.3,Win32,59.88023952,657b66ea316d21385b68909f,,,,,,,,,,,1339.952,1340.9485,,,1341.4491,1341.699,,58,58,,,,,,,,,,,,,,,,bars/028.png,bars/mask008.png,,,,,,,,,,,,2,1,,,,,,,2,6,4,7,,,,,,,,,,,1340.9485,1341.4491,1341.699,1345.1021,space,3.3863,,1345.1021,13,62,1346.1026,1346.1026,1346.1078,,,,0,32,32,32,1,45,120,,,,,,,,
,,60871d7dcbf3bd9bf2c40be8,65af559cac09f8926668b570,2024-01-23_07h59.48.104,bars,2023.2.3,Win32,59.88023952,657b66ea316d21385b68909f,,,,,,,,,,,1346.1079,1347.1037,,,1347.604,1347.8543,,129,129,,,,,,,,,,,,,,,,bars/046.png,bars/mask002.png,,,,,,,,,,,,0,1,,,,,,,0,8,0,8,,,,,,,,,,,1347.1037,1347.604,1347.8543,1350.8743,space,3.0026,,1350.8744,26,44,1351.8747,1351.8749,1351.8801,,,,0,33,33,33,1,155,85,,,,,,,,
,,60871d7dcbf3bd9bf2c40be8,65af559cac09f8926668b570,2024-01-23_07h59.48.104,bars,2023.2.3,Win32,59.88023952,657b66ea316d21385b68909f,,,,,,,,,,,1351.8803,1352.8757,,,1353.3766,1353.6274,,101,101,,,,,,,,,,,,,,,,bars/014.png,bars/mask009.png,,,,,,,,,,,,1,1,,,,,,,2,6,2,7,,,,,,,,,,,1352.8757,1353.3766,1353.6274,1355.5967,space,1.9534,,1355.5968,21,79,1356.5963,1356.5963,1356.5969,,,,0,34,34,34,1,80,0,,,,,,,,
,,60871d7dcbf3bd9bf2c40be8,65af559cac09f8926668b570,2024-01-23_07h59.48.104,bars,2023.2.3,Win32,59.88023952,657b66ea316d21385b68909f,,,,,,,,,,,1356.597,1357.5984,,,1358.099,1358.3468,,110,110,,,,,,,,,,,,,,,,bars/002.png,bars/mask004.png,,,,,,,,,,,,0,1,,,,,,,0,4,1,4,,,,,,,,,,,1357.5984,1358.0989,1358.3469,1361.6351,space,3.2699,,1361.6352,20,25,1362.6357,1362.6357,1362.6407,,,,0,35,35,35,1,130,85,,,,,,,,
,,60871d7dcbf3bd9bf2c40be8,65af559cac09f8926668b570,2024-01-23_07h59.48.104,bars,2023.2.3,Win32,59.88023952,657b66ea316d21385b68909f,,,,,,,,,,,1362.6409,1363.6376,,,1364.138,1364.3885,,132,132,,,,,,,,,,,,,,,,bars/046.png,bars/mask008.png,,,,,,,,,,,,0,1,,,,,,,0,6,0,4,,,,,,,,,,,1363.6376,1364.138,1364.3885,1366.3227,space,1.918,,1366.3228,23,47,1367.3243,1367.3243,1367.3292,,,,0,36,36,36,1,155,85,,,,,,,,
,,60871d7dcbf3bd9bf2c40be8,65af559cac09f8926668b570,2024-01-23_07h59.48.104,bars,2023.2.3,Win32,59.88023952,657b66ea316d21385b68909f,,,,,,,,,,,1367.3293,1368.3245,,,1368.8261,1369.0764,,123,123,,,,,,,,,,,,,,,,bars/044.png,bars/mask001.png,,,,,,,,,,,,0,2,,,,,,,2,4,2,5,,,,,,,,,,,1368.3245,1368.8261,1369.0764,1371.6127,space,2.52,,1371.6128,48,32,1372.6124,1372.6124,1372.6184,,,,0,37,37,37,1,75,155,,,,,,,,
,,60871d7dcbf3bd9bf2c40be8,65af559cac09f8926668b570,2024-01-23_07h59.48.104,bars,2023.2.3,Win32,59.88023952,657b66ea316d21385b68909f,,,,,,,,,,,1372.6186,1373.6135,,,1374.1148,1374.3652,,124,124,,,,,,,,,,,,,,,,bars/038.png,bars/mask007.png,,,,,,,,,,,,0,1,,,,,,,4,6,5,6,,,,,,,,,,,1373.6135,1374.1148,1374.3652,1377.8508,space,3.47,,1377.8509,41,54,1378.8518,1378.8518,1378.8572,,,,0,38,38,38,1,165,70,,,,,,,,
,,60871d7dcbf3bd9bf2c40be8,65af559cac09f8926668b570,2024-01-23_07h59.48.104,bars,2023.2.3,Win32,59.88023952,657b66ea316d21385b68909f,,,,,,,,,,,1378.8574,1379.8538,,,1380.3533,1380.6045,,27,207,,,,,,,,,,,,,,,,bars/006.png,bars/mask003.png,,,,,,,,,,,,1,1,,,,,,,2,8,1,8,,,,,,,,,,,1379.8539,1380.3533,1380.6045,1383.6573,space,3.0366,,1383.6573,8,73,1384.6587,1384.6587,1384.6637,,,,0,39,39,39,1,35,100,,,,,,,,
,,60871d7dcbf3bd9bf2c40be8,65af559cac09f8926668b570,2024-01-23_07h59.48.104,bars,2023.2.3,Win32,59.88023952,657b66ea316d21385b68909f,,,,,,,,,,,1384.6638,1385.6597,,,1386.1601,1386.4103,,31,211,,,,,,,,,,,,,,,,bars/004.png,bars/mask003.png,,,,,,,,,,,,0,1,,,,,,,0,10,0,10,,,,,,,,,,,1385.6597,1386.1601,1386.4103,1391.5482,space,5.1222,,1391.5482,6,86,1392.55,1392.55,1392.5548,,,,0,40,40,40,1,25,125,,,,,,,,
,,60871d7dcbf3bd9bf2c40be8,65af559cac09f8926668b570,2024-01-23_07h59.48.104,bars,2023.2.3,Win32,59.88023952,657b66ea316d21385b68909f,,,,,,,,,,,1392.555,1393.5509,,,1394.0505,1394.3017,,51,51,,,,,,,,,,,,,,,,bars/028.png,bars/mask009.png,,,,,,,,,,,,1,1,,,,,,,0,8,1,10,,,,,,,,,,,1393.5509,1394.0505,1394.3017,1396.9709,space,2.6528,,1396.9709,6,69,1397.9717,1397.9717,1397.9765,,,,0,41,41,41,1,45,120,,,,,,,,
,,60871d7dcbf3bd9bf2c40be8,65af559cac09f8926668b570,2024-01-23_07h59.48.104,bars,2023.2.3,Win32,59.88023952,657b66ea316d21385b68909f,,,,,,,,,,,1397.9767,1398.972,,,1399.4723,1399.7225,,115,115,,,,,,,,,,,,,,,,bars/012.png,bars/mask008.png,,,,,,,,,,,,0,1,,,,,,,0,10,0,10,,,,,,,,,,,1398.9721,1399.4723,1399.7226,1402.1929,space,2.4526,,1402.1929,25,80,1403.193,1403.193,1403.1937,,,,0,42,42,42,1,90,15,,,,,,,,
,,60871d7dcbf3bd9bf2c40be8,65af559cac09f8926668b570,2024-01-23_07h59.48.104,bars,2023.2.3,Win32,59.88023952,657b66ea316d21385b68909f,,,,,,,,,,,1403.1938,1404.1939,,,1404.6949,1404.9446,,73,73,,,,,,,,,,,,,,,,bars/019.png,bars/mask002.png,,,,,,,,,,,,0,1,,,,,,,2,10,2,10,,,,,,,,,,,1404.1939,1404.6949,1404.9446,1408.4485,space,3.4865,,1408.4485,28,32,1409.4501,1409.4501,1409.4549,,,,0,43,43,43,1,45,105,,,,,,,,
,,60871d7dcbf3bd9bf2c40be8,65af559cac09f8926668b570,2024-01-23_07h59.48.104,bars,2023.2.3,Win32,59.88023952,657b66ea316d21385b68909f,,,,,,,,,,,1409.455,1410.45,,,1410.9508,1411.2006,,43,43,,,,,,,,,,,,,,,,bars/009.png,bars/mask008.png,,,,,,,,,,,,0,1,,,,,,,0,8,1,9,,,,,,,,,,,1410.45,1410.9507,1411.2007,1415.6064,space,4.3888,,1415.6065,28,62,1416.6071,1416.6071,1416.612,,,,0,44,44,44,1,15,105,,,,,,,,
,,60871d7dcbf3bd9bf2c40be8,65af559cac09f8926668b570,2024-01-23_07h59.48.104,bars,2023.2.3,Win32,59.88023952,657b66ea316d21385b68909f,,,,,,,,,,,1416.6121,1417.6075,,,1418.1082,1418.3587,,119,119,,,,,,,,,,,,,,,,bars/045.png,bars/mask006.png,,,,,,,,,,,,0,1,,,,,,,0,10,0,10,,,,,,,,,,,1417.6075,1418.1081,1418.3587,1421.3286,space,2.953,,1421.3287,19,71,1422.3293,1422.3294,1422.3345,,,,0,45,45,45,1,100,10,,,,,,,,
,,60871d7dcbf3bd9bf2c40be8,65af559cac09f8926668b570,2024-01-23_07h59.48.104,bars,2023.2.3,Win32,59.88023952,657b66ea316d21385b68909f,,,,,,,,,,,1422.3346,1423.33,,,1423.8306,1424.0803,,132,-48,,,,,,,,,,,,,,,,bars/025.png,bars/mask005.png,,,,,,,,,,,,0,1,,,,,,,0,10,0,10,,,,,,,,,,,1423.33,1423.8306,1424.0804,1427.3008,space,3.2037,,1427.3008,27,88,1428.3017,1428.3017,1428.3065,,,,0,46,46,46,1,105,40,,,,,,,,
,,60871d7dcbf3bd9bf2c40be8,65af559cac09f8926668b570,2024-01-23_07h59.48.104,bars,2023.2.3,Win32,59.88023952,657b66ea316d21385b68909f,,,,,,,,,,,1428.3066,1429.3021,,,1429.8035,1430.053,,123,123,,,,,,,,,,,,,,,,bars/011.png,bars/mask004.png,,,,,,,,,,,,0,1,,,,,,,0,8,0,8,,,,,,,,,,,1429.3022,1429.8035,1430.0531,1434.0906,space,4.0208,,1434.0906,37,38,1435.0923,1435.0923,1435.0973,,,,0,47,47,47,1,160,85,,,,,,,,
,,60871d7dcbf3bd9bf2c40be8,65af559cac09f8926668b570,2024-01-23_07h59.48.104,bars,2023.2.3,Win32,59.88023952,657b66ea316d21385b68909f,,,,,,,,,,,1435.0974,1436.0934,,,1436.5933,1436.8427,,54,54,,,,,,,,,,,,,,,,bars/028.png,bars/mask004.png,,,,,,,,,,,,0,1,,,,,,,0,6,0,7,,,,,,,,,,,1436.0934,1436.5933,1436.8427,1440.2806,space,3.4201,,1440.2806,9,66,1441.2812,1441.2812,1441.2861,,,,0,48,48,48,1,45,120,,,,,,,,
,,60871d7dcbf3bd9bf2c40be8,65af559cac09f8926668b570,2024-01-23_07h59.48.104,bars,2023.2.3,Win32,59.88023952,657b66ea316d21385b68909f,,,,,,,,,,,1441.2862,1442.2818,,,1442.7833,1443.0326,,18,198,,,,,,,,,,,,,,,,bars/046.png,bars/mask006.png,,,,,,,,,,,,0,1,,,,,,,2,4,3,5,,,,,,,,,,,1442.2818,1442.7833,1443.0326,1447.6044,space,4.5552,,1447.6044,43,67,1448.6054,1448.6055,1448.6103,,,,0,49,49,49,1,155,85,,,,,,,,
,,60871d7dcbf3bd9bf2c40be8,65af559cac09f8926668b570,2024-01-23_07h59.48.104,bars,2023.2.3,Win32,59.88023952,657b66ea316d21385b68909f,,,,,,,,,,,,,,,,,,,,,,,,,,,,,,,,,,,,,,,,,,,,,,,,,,,,,,,,,,,,,,,,,,,,,,,,,,,,,,,,,,,,,,,,,,,,,1448.6104,1508.6154,0,2,2,0,1,sequence_tables/blk003.csv
,,60871d7dcbf3bd9bf2c40be8,65af559cac09f8926668b570,2024-01-23_07h59.48.104,bars,2023.2.3,Win32,59.88023952,657b66ea316d21385b68909f,,,,,,,,,,,1515.4636,1516.4564,,,1516.9565,1517.2073,,119,119,,,,,,,,,,,,,,,,bars/048.png,bars/mask008.png,,,,,,,,,,,,0,2,,,,,,,5,9,5,7,,,,,,1508.6206,1515.4555,space,6.8241,,1516.4564,1516.9565,1517.2073,1521.7113,space,4.4878,,1521.7113,69,56,1522.7123,1522.7123,1522.7178,,,,0,0,0,0,1,50,175,,,,,,,,
,,60871d7dcbf3bd9bf2c40be8,65af559cac09f8926668b570,2024-01-23_07h59.48.104,bars,2023.2.3,Win32,59.88023952,657b66ea316d21385b68909f,,,,,,,,,,,1522.718,1523.7139,,,1524.2144,1524.4642,,19,199,,,,,,,,,,,,,,,,bars/035.png,bars/mask003.png,,,,,,,,,,,,2,1,,,,,,,7,7,10,5,,,,,,,,,,,1523.7139,1524.2143,1524.4642,1526.6165,space,2.1363,,1526.6165,24,41,1527.6174,1527.6174,1527.6227,,,,0,1,1,1,1,175,60,,,,,,,,
,,60871d7dcbf3bd9bf2c40be8,65af559cac09f8926668b570,2024-01-23_07h59.48.104,bars,2023.2.3,Win32,59.88023952,657b66ea316d21385b68909f,,,,,,,,,,,1527.6229,1528.6187,,,1529.1192,1529.3692,,161,-19,,,,,,,,,,,,,,,,bars/018.png,bars/mask001.png,,,,,,,,,,,,4,1,,,,,,,5,5,6,3,,,,,,,,,,,1528.6187,1529.1192,1529.3692,1532.6057,space,3.2198,,1532.6057,11,71,1533.6062,1533.6062,1533.6111,,,,0,2,2,2,1,150,90,,,,,,,,
,,60871d7dcbf3bd9bf2c40be8,65af559cac09f8926668b570,2024-01-23_07h59.48.104,bars,2023.2.3,Win32,59.88023952,657b66ea316d21385b68909f,,,,,,,,,,,1533.6113,1534.6078,,,1535.1083,1535.3586,,126,126,,,,,,,,,,,,,,,,bars/031.png,bars/mask008.png,,,,,,,,,,,,5,1,,,,,,,7,3,6,6,,,,,,,,,,,1534.6079,1535.1082,1535.3586,1539.1453,space,3.77,,1539.1454,6,89,1540.1468,1540.1468,1540.1517,,,,0,3,3,3,1,120,35,,,,,,,,
,,60871d7dcbf3bd9bf2c40be8,65af559cac09f8926668b570,2024-01-23_07h59.48.104,bars,2023.2.3,Win32,59.88023952,657b66ea316d21385b68909f,,,,,,,,,,,1540.1518,1541.1477,,,1541.6483,1541.8982,,23,203,,,,,,,,,,,,,,,,bars/040.png,bars/mask007.png,,,,,,,,,,,,2,2,,,,,,,9,5,9,6,,,,,,,,,,,1541.1477,1541.6483,1541.8982,1546.6028,space,4.6881,,1546.6029,63,18,1547.6038,1547.6039,1547.6093,,,,0,4,4,4,1,140,5,,,,,,,,
,,60871d7dcbf3bd9bf2c40be8,65af559cac09f8926668b570,2024-01-23_07h59.48.104,bars,2023.2.3,Win32,59.88023952,657b66ea316d21385b68909f,,,,,,,,,,,1547.6094,1548.605,,,1549.1056,1549.3555,,153,-27,,,,,,,,,,,,,,,,bars/005.png,bars/mask005.png,,,,,,,,,,,,3,2,,,,,,,10,7,9,6,,,,,,,,,,,1548.605,1549.1056,1549.3556,1554.4268,space,5.0545,,1554.4268,37,13,1555.4277,1555.4277,1555.4326,,,,0,5,5,5,1,10,140,,,,,,,,
,,60871d7dcbf3bd9bf2c40be8,65af559cac09f8926668b570,2024-01-23_07h59.48.104,bars,2023.2.3,Win32,59.88023952,657b66ea316d21385b68909f,,,,,,,,,,,1555.4328,1556.4298,,,1556.9299,1557.1805,,109,109,,,,,,,,,,,,,,,,bars/019.png,bars/mask004.png,,,,,,,,,,,,3,2,,,,,,,8,5,7,4,,,,,,,,,,,1556.4298,1556.9299,1557.1805,1560.1163,space,2.9199,,1560.1164,64,4,1561.1172,1561.1173,1561.122,,,,0,6,6,6,1,45,105,,,,,,,,
,,60871d7dcbf3bd9bf2c40be8,65af559cac09f8926668b570,2024-01-23_07h59.48.104,bars,2023.2.3,Win32,59.88023952,657b66ea316d21385b68909f,,,,,,,,,,,1561.1222,1562.1185,,,1562.6188,1562.8692,,18,198,,,,,,,,,,,,,,,,bars/040.png,bars/mask007.png,,,,,,,,,,,,5,2,,,,,,,6,7,6,8,,,,,,,,,,,1562.1185,1562.6188,1562.8692,1566.4564,space,3.5709,,1566.4565,58,13,1567.457,1567.457,1567.4621,,,,0,7,7,7,1,140,5,,,,,,,,
,,60871d7dcbf3bd9bf2c40be8,65af559cac09f8926668b570,2024-01-23_07h59.48.104,bars,2023.2.3,Win32,59.88023952,657b66ea316d21385b68909f,,,,,,,,,,,1567.4622,1568.4577,,,1568.9587,1569.2091,,23,203,,,,,,,,,,,,,,,,bars/007.png,bars/mask009.png,,,,,,,,,,,,1,1,,,,,,,8,5,9,6,,,,,,,,,,,1568.4577,1568.9587,1569.2091,1574.2143,space,4.9892,,1574.2143,28,32,1575.2148,1575.2148,1575.2203,,,,0,8,8,8,1,175,55,,,,,,,,
,,60871d7dcbf3bd9bf2c40be8,65af559cac09f8926668b570,2024-01-23_07h59.48.104,bars,2023.2.3,Win32,59.88023952,657b66ea316d21385b68909f,,,,,,,,,,,1575.2204,1576.2157,,,1576.7162,1576.9665,,66,66,,,,,,,,,,,,,,,,bars/035.png,bars/mask002.png,,,,,,,,,,,,6,2,,,,,,,10,7,10,8,,,,,,,,,,,1576.2158,1576.7162,1576.9665,1579.0679,space,2.0848,,1579.0679,71,6,1580.0688,1580.0689,1580.0744,,,,0,9,9,9,1,175,60,,,,,,,,
,,60871d7dcbf3bd9bf2c40be8,65af559cac09f8926668b570,2024-01-23_07h59.48.104,bars,2023.2.3,Win32,59.88023952,657b66ea316d21385b68909f,,,,,,,,,,,1580.0745,1581.0708,,,1581.571,1581.822,,143,143,,,,,,,,,,,,,,,,bars/016.png,bars/mask000.png,,,,,,,,,,,,2,2,,,,,,,8,9,8,9,,,,,,,,,,,1581.0708,1581.571,1581.822,1584.7582,space,2.9202,,1584.7582,77,22,1585.7568,1585.7568,1585.7617,,,,0,10,10,10,1,40,165,,,,,,,,
,,60871d7dcbf3bd9bf2c40be8,65af559cac09f8926668b570,2024-01-23_07h59.48.104,bars,2023.2.3,Win32,59.88023952,657b66ea316d21385b68909f,,,,,,,,,,,1585.7619,1586.7586,,,1587.26,1587.5097,,60,60,,,,,,,,,,,,,,,,bars/038.png,bars/mask008.png,,,,,,,,,,,,7,2,,,,,,,6,10,5,10,,,,,,,,,,,1586.7587,1587.26,1587.5097,1590.1135,space,2.5869,,1590.1136,75,10,1591.114,1591.114,1591.1188,,,,0,11,11,11,1,165,70,,,,,,,,
,,60871d7dcbf3bd9bf2c40be8,65af559cac09f8926668b570,2024-01-23_07h59.48.104,bars,2023.2.3,Win32,59.88023952,657b66ea316d21385b68909f,,,,,,,,,,,1591.1189,1592.1148,,,1592.6159,1592.8656,,57,57,,,,,,,,,,,,,,,,bars/040.png,bars/mask004.png,,,,,,,,,,,,0,2,,,,,,,8,10,10,8,,,,,,,,,,,1592.1148,1592.6159,1592.8657,1595.0843,space,2.2023,,1595.0844,83,52,1596.0853,1596.0854,1596.0907,,,,0,12,12,12,1,140,5,,,,,,,,
,,60871d7dcbf3bd9bf2c40be8,65af559cac09f8926668b570,2024-01-23_07h59.48.104,bars,2023.2.3,Win32,59.88023952,657b66ea316d21385b68909f,,,,,,,,,,,1596.0909,1597.0862,,,1597.587,1597.8368,,114,114,,,,,,,,,,,,,,,,bars/046.png,bars/mask008.png,,,,,,,,,,,,0,2,,,,,,,10,10,10,8,,,,,,,,,,,1597.0862,1597.5869,1597.8368,1601.1737,space,3.3201,,1601.1737,41,29,1602.1753,1602.1753,1602.1802,,,,0,13,13,13,1,155,85,,,,,,,,
,,60871d7dcbf3bd9bf2c40be8,65af559cac09f8926668b570,2024-01-23_07h59.48.104,bars,2023.2.3,Win32,59.88023952,657b66ea316d21385b68909f,,,,,,,,,,,1602.1803,1603.176,,,1603.6762,1603.9265,,110,110,,,,,,,,,,,,,,,,bars/041.png,bars/mask000.png,,,,,,,,,,,,1,2,,,,,,,8,8,7,8,,,,,,,,,,,1603.176,1603.6762,1603.9266,1606.8462,space,2.9028,,1606.8463,90,25,1607.8474,1607.8474,1607.8523,,,,0,14,14,14,1,20,85,,,,,,,,
,,60871d7dcbf3bd9bf2c40be8,65af559cac09f8926668b570,2024-01-23_07h59.48.104,bars,2023.2.3,Win32,59.88023952,657b66ea316d21385b68909f,,,,,,,,,,,1607.8524,1608.8483,,,1609.3489,1609.5983,,124,124,,,,,,,,,,,,,,,,bars/000.png,bars/mask009.png,,,,,,,,,,,,2,2,,,,,,,6,6,7,6,,,,,,,,,,,1608.8483,1609.3489,1609.5984,1612.6352,space,3.0196,,1612.6352,84,21,1613.6363,1613.6363,1613.6411,,,,0,15,15,15,1,40,145,,,,,,,,
,,60871d7dcbf3bd9bf2c40be8,65af559cac09f8926668b570,2024-01-23_07h59.48.104,bars,2023.2.3,Win32,59.88023952,657b66ea316d21385b68909f,,,,,,,,,,,1613.6413,1614.6372,,,1615.1381,1615.3885,,75,75,,,,,,,,,,,,,,,,bars/034.png,bars/mask007.png,,,,,,,,,,,,1,2,,,,,,,8,4,7,2,,,,,,,,,,,1614.6373,1615.138,1615.3885,1617.0898,space,1.6855,,1617.0898,50,10,1618.0908,1618.0908,1618.0956,,,,0,16,16,16,1,125,65,,,,,,,,
,,60871d7dcbf3bd9bf2c40be8,65af559cac09f8926668b570,2024-01-23_07h59.48.104,bars,2023.2.3,Win32,59.88023952,657b66ea316d21385b68909f,,,,,,,,,,,1618.0957,1619.0919,,,1619.5926,1619.8418,,58,58,,,,,,,,,,,,,,,,bars/007.png,bars/mask004.png,,,,,,,,,,,,2,2,,,,,,,10,2,9,2,,,,,,,,,,,1619.0919,1619.5926,1619.8418,1622.4613,space,2.6021,,1622.4613,63,3,1623.463,1623.463,1623.4683,,,,0,17,17,17,1,175,55,,,,,,,,
,,60871d7dcbf3bd9bf2c40be8,65af559cac09f8926668b570,2024-01-23_07h59.48.104,bars,2023.2.3,Win32,59.88023952,657b66ea316d21385b68909f,,,,,,,,,,,1623.4684,1624.4641,,,1624.9648,1625.2146,,38,38,,,,,,,,,,,,,,,,bars/035.png,bars/mask009.png,,,,,,,,,,,,0,2,,,,,,,8,0,6,0,,,,,,,,,,,1624.4641,1624.9647,1625.2146,1627.8509,space,2.6198,,1627.851,43,22,1628.8508,1628.8508,1628.856,,,,0,18,18,18,1,175,60,,,,,,,,
,,60871d7dcbf3bd9bf2c40be8,65af559cac09f8926668b570,2024-01-23_07h59.48.104,bars,2023.2.3,Win32,59.88023952,657b66ea316d21385b68909f,,,,,,,,,,,1628.8561,1629.8518,,,1630.3532,1630.6036,,121,121,,,,,,,,,,,,,,,,bars/006.png,bars/mask005.png,,,,,,,,,,,,1,2,,,,,,,10,0,10,2,,,,,,,,,,,1629.8518,1630.3531,1630.6036,1633.0722,space,2.4524,,1633.0722,86,21,1634.0735,1634.0735,1634.0784,,,,0,19,19,19,1,35,100,,,,,,,,
,,60871d7dcbf3bd9bf2c40be8,65af559cac09f8926668b570,2024-01-23_07h59.48.104,bars,2023.2.3,Win32,59.88023952,657b66ea316d21385b68909f,,,,,,,,,,,1634.0785,1635.0744,,,1635.5752,1635.8255,,36,36,,,,,,,,,,,,,,,,bars/048.png,bars/mask001.png,,,,,,,,,,,,5,1,,,,,,,10,0,10,0,,,,,,,,,,,1635.0744,1635.5752,1635.8255,1638.1613,space,2.3196,,1638.1614,14,41,1639.1618,1639.1619,1639.1677,,,,0,20,20,20,1,50,175,,,,,,,,
,,60871d7dcbf3bd9bf2c40be8,65af559cac09f8926668b570,2024-01-23_07h59.48.104,bars,2023.2.3,Win32,59.88023952,657b66ea316d21385b68909f,,,,,,,,,,,1639.1679,1640.1626,,,1640.6632,1640.9136,,136,136,,,,,,,,,,,,,,,,bars/006.png,bars/mask003.png,,,,,,,,,,,,0,2,,,,,,,8,0,5,0,,,,,,,,,,,1640.1627,1640.6632,1640.9136,1643.9667,space,3.0364,,1643.9667,79,36,1644.9678,1644.9678,1644.9732,,,,0,21,21,21,1,35,100,,,,,,,,
,,60871d7dcbf3bd9bf2c40be8,65af559cac09f8926668b570,2024-01-23_07h59.48.104,bars,2023.2.3,Win32,59.88023952,657b66ea316d21385b68909f,,,,,,,,,,,1644.9733,1645.9687,,,1646.4693,1646.7194,,39,219,,,,,,,,,,,,,,,,bars/034.png,bars/mask001.png,,,,,,,,,,,,0,2,,,,,,,10,0,9,0,,,,,,,,,,,1645.9687,1646.4692,1646.7195,1651.4235,space,4.6882,,1651.4235,86,26,1652.4254,1652.4254,1652.4302,,,,0,22,22,22,1,125,65,,,,,,,,
,,60871d7dcbf3bd9bf2c40be8,65af559cac09f8926668b570,2024-01-23_07h59.48.104,bars,2023.2.3,Win32,59.88023952,657b66ea316d21385b68909f,,,,,,,,,,,1652.4303,1653.4259,,,1653.9262,1654.1765,,31,211,,,,,,,,,,,,,,,,bars/030.png,bars/mask007.png,,,,,,,,,,,,0,2,,,,,,,10,2,9,1,,,,,,,,,,,1653.426,1653.9261,1654.1765,1657.9476,space,3.7549,,1657.9476,71,34,1658.9475,1658.9476,1658.9528,,,,0,23,23,23,1,140,65,,,,,,,,
,,60871d7dcbf3bd9bf2c40be8,65af559cac09f8926668b570,2024-01-23_07h59.48.104,bars,2023.2.3,Win32,59.88023952,657b66ea316d21385b68909f,,,,,,,,,,,1658.953,1659.949,,,1660.4499,1660.7001,,137,-43,,,,,,,,,,,,,,,,bars/001.png,bars/mask001.png,,,,,,,,,,,,6,1,,,,,,,8,0,8,0,,,,,,,,,,,1659.9491,1660.4499,1660.7002,1664.4865,space,3.7699,,1664.4865,7,52,1665.4872,1665.4872,1665.4926,,,,0,24,24,24,1,130,85,,,,,,,,
,,60871d7dcbf3bd9bf2c40be8,65af559cac09f8926668b570,2024-01-23_07h59.48.104,bars,2023.2.3,Win32,59.88023952,657b66ea316d21385b68909f,,,,,,,,,,,1665.4927,1666.4889,,,1666.989,1667.2394,,37,217,,,,,,,,,,,,,,,,bars/034.png,bars/mask009.png,,,,,,,,,,,,0,2,,,,,,,6,0,4,0,,,,,,,,,,,1666.489,1666.9889,1667.2394,1671.1608,space,3.9046,,1671.1608,88,28,1672.1608,1672.1608,1672.1665,,,,0,25,25,25,1,125,65,,,,,,,,
,,60871d7dcbf3bd9bf2c40be8,65af559cac09f8926668b570,2024-01-23_07h59.48.104,bars,2023.2.3,Win32,59.88023952,657b66ea316d21385b68909f,,,,,,,,,,,1672.1667,1673.1617,,,1673.6632,1673.9123,,125,125,,,,,,,,,,,,,,,,bars/004.png,bars/mask003.png,,,,,,,,,,,,1,2,,,,,,,4,2,3,1,,,,,,,,,,,1673.1618,1673.6632,1673.9123,1678.367,space,4.4379,,1678.367,80,0,1679.3677,1679.3677,1679.3726,,,,0,26,26,26,1,25,125,,,,,,,,
,,60871d7dcbf3bd9bf2c40be8,65af559cac09f8926668b570,2024-01-23_07h59.48.104,bars,2023.2.3,Win32,59.88023952,657b66ea316d21385b68909f,,,,,,,,,,,1679.3726,1680.3692,,,1680.8696,1681.1203,,111,111,,,,,,,,,,,,,,,,bars/039.png,bars/mask006.png,,,,,,,,,,,,0,2,,,,,,,2,0,2,0,,,,,,,,,,,1680.3692,1680.8696,1681.1203,1687.1097,space,5.9728,,1687.1097,64,6,1688.1104,1688.1104,1688.1155,,,,0,27,27,27,1,175,105,,,,,,,,
,,60871d7dcbf3bd9bf2c40be8,65af559cac09f8926668b570,2024-01-23_07h59.48.104,bars,2023.2.3,Win32,59.88023952,657b66ea316d21385b68909f,,,,,,,,,,,1688.1157,1689.1119,,,1689.6115,1689.8616,,107,107,,,,,,,,,,,,,,,,bars/023.png,bars/mask000.png,,,,,,,,,,,,1,2,,,,,,,0,2,1,1,,,,,,,,,,,1689.1119,1689.6115,1689.8617,1692.6483,space,2.7693,,1692.6483,87,8,1693.6495,1693.6495,1693.6547,,,,0,28,28,28,1,20,115,,,,,,,,
,,60871d7dcbf3bd9bf2c40be8,65af559cac09f8926668b570,2024-01-23_07h59.48.104,bars,2023.2.3,Win32,59.88023952,657b66ea316d21385b68909f,,,,,,,,,,,1693.6549,1694.6505,,,1695.1512,1695.4013,,139,139,,,,,,,,,,,,,,,,bars/004.png,bars/mask008.png,,,,,,,,,,,,0,2,,,,,,,2,0,3,0,,,,,,,,,,,1694.6505,1695.1512,1695.4014,1697.82,space,2.4028,,1697.8201,66,14,1698.8206,1698.8206,1698.8257,,,,0,29,29,29,1,25,125,,,,,,,,
,,60871d7dcbf3bd9bf2c40be8,65af559cac09f8926668b570,2024-01-23_07h59.48.104,bars,2023.2.3,Win32,59.88023952,657b66ea316d21385b68909f,,,,,,,,,,,1698.8259,1699.8223,,,1700.3219,1700.5729,,102,102,,,,,,,,,,,,,,,,bars/045.png,bars/mask008.png,,,,,,,,,,,,3,1,,,,,,,4,2,3,1,,,,,,,,,,,1699.8223,1700.3219,1700.5729,1702.7418,space,2.1523,,1702.7418,2,88,1703.7422,1703.7422,1703.7478,,,,0,30,30,30,1,100,10,,,,,,,,
,,60871d7dcbf3bd9bf2c40be8,65af559cac09f8926668b570,2024-01-23_07h59.48.104,bars,2023.2.3,Win32,59.88023952,657b66ea316d21385b68909f,,,,,,,,,,,1703.748,1704.7441,,,1705.2447,1705.4943,,119,119,,,,,,,,,,,,,,,,bars/045.png,bars/mask004.png,,,,,,,,,,,,1,1,,,,,,,2,4,4,5,,,,,,,,,,,1704.7441,1705.2446,1705.4944,1710.95,space,5.4386,,1710.95,19,71,1711.9502,1711.9503,1711.9551,,,,0,31,31,31,1,100,10,,,,,,,,
,,60871d7dcbf3bd9bf2c40be8,65af559cac09f8926668b570,2024-01-23_07h59.48.104,bars,2023.2.3,Win32,59.88023952,657b66ea316d21385b68909f,,,,,,,,,,,1711.9552,1712.9524,,,1713.4522,1713.7026,,115,115,,,,,,,,,,,,,,,,bars/025.png,bars/mask008.png,,,,,,,,,,,,1,1,,,,,,,0,6,1,5,,,,,,,,,,,1712.9524,1713.4522,1713.7026,1717.6063,space,3.8877,,1717.6063,10,75,1718.6058,1718.6058,1718.6109,,,,0,32,32,32,1,105,40,,,,,,,,
,,60871d7dcbf3bd9bf2c40be8,65af559cac09f8926668b570,2024-01-23_07h59.48.104,bars,2023.2.3,Win32,59.88023952,657b66ea316d21385b68909f,,,,,,,,,,,1718.6111,1719.6088,,,1720.1091,1720.3598,,73,73,,,,,,,,,,,,,,,,bars/037.png,bars/mask000.png,,,,,,,,,,,,0,2,,,,,,,0,8,0,8,,,,,,,,,,,1719.6088,1720.1091,1720.3598,1723.8629,space,3.4874,,1723.8629,77,32,1724.8627,1724.8627,1724.868,,,,0,33,33,33,1,150,105,,,,,,,,
,,60871d7dcbf3bd9bf2c40be8,65af559cac09f8926668b570,2024-01-23_07h59.48.104,bars,2023.2.3,Win32,59.88023952,657b66ea316d21385b68909f,,,,,,,,,,,1724.8681,1725.8646,,,1726.3653,1726.6156,,109,109,,,,,,,,,,,,,,,,bars/040.png,bars/mask006.png,,,,,,,,,,,,0,1,,,,,,,0,6,0,6,,,,,,,,,,,1725.8647,1726.3652,1726.6157,1729.2688,space,2.6366,,1729.2688,31,76,1730.2694,1730.2695,1730.2748,,,,0,34,34,34,1,140,5,,,,,,,,
,,60871d7dcbf3bd9bf2c40be8,65af559cac09f8926668b570,2024-01-23_07h59.48.104,bars,2023.2.3,Win32,59.88023952,657b66ea316d21385b68909f,,,,,,,,,,,1730.275,1731.2703,,,1731.7706,1732.021,,110,110,,,,,,,,,,,,,,,,bars/025.png,bars/mask007.png,,,,,,,,,,,,0,1,,,,,,,0,8,0,7,,,,,,,,,,,1731.2703,1731.7706,1732.021,1738.2107,space,6.1732,,1738.2108,5,70,1739.2115,1739.2115,1739.2167,,,,0,35,35,35,1,105,40,,,,,,,,
,,60871d7dcbf3bd9bf2c40be8,65af559cac09f8926668b570,2024-01-23_07h59.48.104,bars,2023.2.3,Win32,59.88023952,657b66ea316d21385b68909f,,,,,,,,,,,1739.2168,1740.2126,,,1740.7134,1740.9631,,51,51,,,,,,,,,,,,,,,,bars/029.png,bars/mask000.png,,,,,,,,,,,,5,2,,,,,,,2,6,2,6,,,,,,,,,,,1740.2126,1740.7134,1740.9631,1743.4317,space,2.452,,1743.4318,39,6,1744.4335,1744.4336,1744.4393,,,,0,36,36,36,1,90,45,,,,,,,,
,,60871d7dcbf3bd9bf2c40be8,65af559cac09f8926668b570,2024-01-23_07h59.48.104,bars,2023.2.3,Win32,59.88023952,657b66ea316d21385b68909f,,,,,,,,,,,1744.4394,1745.4344,,,1745.9346,1746.1846,,168,-12,,,,,,,,,,,,,,,,bars/029.png,bars/mask007.png,,,,,,,,,,,,0,2,,,,,,,0,8,1,7,,,,,,,,,,,1745.4344,1745.9346,1746.1846,1749.0714,space,2.8697,,1749.0714,78,57,1750.0728,1750.0728,1750.0779,,,,0,37,37,37,1,90,45,,,,,,,,
,,60871d7dcbf3bd9bf2c40be8,65af559cac09f8926668b570,2024-01-23_07h59.48.104,bars,2023.2.3,Win32,59.88023952,657b66ea316d21385b68909f,,,,,,,,,,,1750.078,1751.0733,,,1751.573,1751.8237,,39,39,,,,,,,,,,,,,,,,bars/005.png,bars/mask001.png,,,,,,,,,,,,0,1,,,,,,,2,10,5,9,,,,,,,,,,,1751.0734,1751.5729,1751.8237,1755.594,space,3.7533,,1755.594,29,79,1756.5956,1756.5956,1756.6011,,,,0,38,38,38,1,10,140,,,,,,,,
,,60871d7dcbf3bd9bf2c40be8,65af559cac09f8926668b570,2024-01-23_07h59.48.104,bars,2023.2.3,Win32,59.88023952,657b66ea316d21385b68909f,,,,,,,,,,,1756.6012,1757.5961,,,1758.097,1758.3466,,12,12,,,,,,,,,,,,,,,,bars/016.png,bars/mask001.png,,,,,,,,,,,,1,2,,,,,,,0,10,0,10,,,,,,,,,,,1757.5961,1758.097,1758.3466,1760.866,space,2.5018,,1760.866,28,27,1761.8671,1761.8672,1761.8726,,,,0,39,39,39,1,40,165,,,,,,,,
,,60871d7dcbf3bd9bf2c40be8,65af559cac09f8926668b570,2024-01-23_07h59.48.104,bars,2023.2.3,Win32,59.88023952,657b66ea316d21385b68909f,,,,,,,,,,,1761.8727,1762.8686,,,1763.3684,1763.6193,,113,113,,,,,,,,,,,,,,,,bars/025.png,bars/mask003.png,,,,,,,,,,,,2,1,,,,,,,2,10,3,10,,,,,,,,,,,1762.8687,1763.3684,1763.6193,1766.2551,space,2.6194,,1766.2552,8,73,1767.2563,1767.2564,1767.2617,,,,0,40,40,40,1,105,40,,,,,,,,
,,60871d7dcbf3bd9bf2c40be8,65af559cac09f8926668b570,2024-01-23_07h59.48.104,bars,2023.2.3,Win32,59.88023952,657b66ea316d21385b68909f,,,,,,,,,,,1767.2618,1768.2567,,,1768.7569,1769.007,,136,136,,,,,,,,,,,,,,,,bars/007.png,bars/mask000.png,,,,,,,,,,,,0,1,,,,,,,4,10,6,10,,,,,,,,,,,1768.2567,1768.7568,1769.007,1771.5104,space,2.4859,,1771.5104,39,81,1772.5095,1772.5095,1772.5145,,,,0,41,41,41,1,175,55,,,,,,,,
,,60871d7dcbf3bd9bf2c40be8,65af559cac09f8926668b570,2024-01-23_07h59.48.104,bars,2023.2.3,Win32,59.88023952,657b66ea316d21385b68909f,,,,,,,,,,,1772.5145,1773.5123,,,1774.0131,1774.2628,,129,129,,,,,,,,,,,,,,,,bars/040.png,bars/mask006.png,,,,,,,,,,,,1,1,,,,,,,2,10,2,10,,,,,,,,,,,1773.5124,1774.0131,1774.2629,1778.4503,space,4.1706,,1778.4503,11,56,1779.4517,1779.4517,1779.4566,,,,0,42,42,42,1,140,5,,,,,,,,
,,60871d7dcbf3bd9bf2c40be8,65af559cac09f8926668b570,2024-01-23_07h59.48.104,bars,2023.2.3,Win32,59.88023952,657b66ea316d21385b68909f,,,,,,,,,,,1779.4567,1780.4521,,,1780.953,1781.2031,,150,150,,,,,,,,,,,,,,,,bars/011.png,bars/mask004.png,,,,,,,,,,,,3,1,,,,,,,4,10,4,9,,,,,,,,,,,1780.4521,1780.953,1781.2031,1787.1421,space,5.9221,,1787.1421,10,65,1788.1434,1788.1434,1788.1486,,,,0,43,43,43,1,160,85,,,,,,,,
,,60871d7dcbf3bd9bf2c40be8,65af559cac09f8926668b570,2024-01-23_07h59.48.104,bars,2023.2.3,Win32,59.88023952,657b66ea316d21385b68909f,,,,,,,,,,,1788.1487,1789.1423,,,1789.6452,1789.8949,,16,196,,,,,,,,,,,,,,,,bars/037.png,bars/mask003.png,,,,,,,,,,,,0,1,,,,,,,6,8,7,8,,,,,,,,,,,1789.1423,1789.6451,1789.8949,1794.3493,space,4.4376,,1794.3493,46,89,1795.3508,1795.3508,1795.3556,,,,0,44,44,44,1,150,105,,,,,,,,
,,60871d7dcbf3bd9bf2c40be8,65af559cac09f8926668b570,2024-01-23_07h59.48.104,bars,2023.2.3,Win32,59.88023952,657b66ea316d21385b68909f,,,,,,,,,,,1795.3558,1796.3519,,,1796.8513,1797.1024,,110,110,,,,,,,,,,,,,,,,bars/031.png,bars/mask005.png,,,,,,,,,,,,1,1,,,,,,,4,10,2,10,,,,,,,,,,,1796.3519,1796.8513,1797.1024,1798.9715,space,1.8521,,1798.9715,10,75,1799.972,1799.972,1799.9768,,,,0,45,45,45,1,120,35,,,,,,,,
,,60871d7dcbf3bd9bf2c40be8,65af559cac09f8926668b570,2024-01-23_07h59.48.104,bars,2023.2.3,Win32,59.88023952,657b66ea316d21385b68909f,,,,,,,,,,,1799.9768,1800.9729,,,1801.4737,1801.7237,,64,64,,,,,,,,,,,,,,,,bars/013.png,bars/mask009.png,,,,,,,,,,,,1,1,,,,,,,2,8,2,6,,,,,,,,,,,1800.973,1801.4737,1801.7238,1804.676,space,2.9359,,1804.676,11,54,1805.6777,1805.6777,1805.6827,,,,0,46,46,46,1,75,10,,,,,,,,
,,60871d7dcbf3bd9bf2c40be8,65af559cac09f8926668b570,2024-01-23_07h59.48.104,bars,2023.2.3,Win32,59.88023952,657b66ea316d21385b68909f,,,,,,,,,,,1805.6828,1806.6781,,,1807.1794,1807.4293,,68,68,,,,,,,,,,,,,,,,bars/028.png,bars/mask009.png,,,,,,,,,,,,1,1,,,,,,,4,6,4,7,,,,,,,,,,,1806.6781,1807.1794,1807.4293,1811.9838,space,4.5381,,1811.9839,23,52,1812.9848,1812.9848,1812.9898,,,,0,47,47,47,1,45,120,,,,,,,,
,,60871d7dcbf3bd9bf2c40be8,65af559cac09f8926668b570,2024-01-23_07h59.48.104,bars,2023.2.3,Win32,59.88023952,657b66ea316d21385b68909f,,,,,,,,,,,1812.9899,1813.9859,,,1814.4864,1814.737,,60,60,,,,,,,,,,,,,,,,bars/013.png,bars/mask000.png,,,,,,,,,,,,1,1,,,,,,,2,8,2,7,,,,,,,,,,,1813.986,1814.4863,1814.737,1817.7231,space,2.9698,,1817.7231,15,50,1818.724,1818.724,1818.7288,,,,0,48,48,48,1,75,10,,,,,,,,
,,60871d7dcbf3bd9bf2c40be8,65af559cac09f8926668b570,2024-01-23_07h59.48.104,bars,2023.2.3,Win32,59.88023952,657b66ea316d21385b68909f,,,,,,,,,,,1818.7289,1819.7248,,,1820.2256,1820.4755,,21,201,,,,,,,,,,,,,,,,bars/023.png,bars/mask005.png,,,,,,,,,,,,0,1,,,,,,,0,10,0,10,,,,,,,,,,,1819.7248,1820.2256,1820.4755,1824.9129,space,4.4212,,1824.9129,1,86,1825.915,1825.9151,1825.9199,,,,0,49,49,49,1,20,115,,,,,,,,
,,60871d7dcbf3bd9bf2c40be8,65af559cac09f8926668b570,2024-01-23_07h59.48.104,bars,2023.2.3,Win32,59.88023952,657b66ea316d21385b68909f,,,,,,,,,,,,,,,,,,,,,,,,,,,,,,,,,,,,,,,,,,,,,,,,,,,,,,,,,,,,,,,,,,,,,,,,,,,,,,,,,,,,,,,,,,,,,1825.9199,1885.9075,0,3,3,3,1,sequence_tables/blk026.csv
,,60871d7dcbf3bd9bf2c40be8,65af559cac09f8926668b570,2024-01-23_07h59.48.104,bars,2023.2.3,Win32,59.88023952,657b66ea316d21385b68909f,,,,,,,,,,,1888.3636,1889.3603,,,1889.8606,1890.1115,,120,120,,,,,,,,,,,,,,,,bars/049.png,bars/mask001.png,,,,,,,,,,,,1,2,,,,,,,4,1,4,1,,,,,,1885.9124,1888.3599,space,2.4357,,1889.3603,1889.8605,1890.1115,1892.998,space,2.8696,,1892.9981,40,5,1893.9983,1893.9984,1894.004,,,,0,0,0,0,1,160,115,,,,,,,,
,,60871d7dcbf3bd9bf2c40be8,65af559cac09f8926668b570,2024-01-23_07h59.48.104,bars,2023.2.3,Win32,59.88023952,657b66ea316d21385b68909f,,,,,,,,,,,1894.0042,1894.9998,,,1895.4995,1895.7509,,144,144,,,,,,,,,,,,,,,,bars/002.png,bars/mask000.png,,,,,,,,,,,,4,1,,,,,,,6,0,8,0,,,,,,,,,,,1894.9999,1895.4994,1895.7509,1899.6714,space,3.9042,,1899.6715,14,59,1900.6728,1900.6728,1900.6783,,,,0,1,1,1,1,130,85,,,,,,,,
,,60871d7dcbf3bd9bf2c40be8,65af559cac09f8926668b570,2024-01-23_07h59.48.104,bars,2023.2.3,Win32,59.88023952,657b66ea316d21385b68909f,,,,,,,,,,,1900.6784,1901.6733,,,1902.1735,1902.4241,,62,62,,,,,,,,,,,,,,,,bars/022.png,bars/mask006.png,,,,,,,,,,,,0,1,,,,,,,4,2,2,2,,,,,,,,,,,1901.6734,1902.1735,1902.4241,1905.2433,space,2.8024,,1905.2433,33,42,1906.2446,1906.2446,1906.2494,,,,0,2,2,2,1,95,20,,,,,,,,
,,60871d7dcbf3bd9bf2c40be8,65af559cac09f8926668b570,2024-01-23_07h59.48.104,bars,2023.2.3,Win32,59.88023952,657b66ea316d21385b68909f,,,,,,,,,,,1906.2495,1907.2453,,,1907.7458,1907.9957,,161,161,,,,,,,,,,,,,,,,bars/014.png,bars/mask002.png,,,,,,,,,,,,0,2,,,,,,,2,0,2,0,,,,,,,,,,,1907.2453,1907.7458,1907.9958,1910.7495,space,2.7368,,1910.7495,81,19,1911.7498,1911.7499,1911.7553,,,,0,3,3,3,1,80,0,,,,,,,,
,,60871d7dcbf3bd9bf2c40be8,65af559cac09f8926668b570,2024-01-23_07h59.48.104,bars,2023.2.3,Win32,59.88023952,657b66ea316d21385b68909f,,,,,,,,,,,1911.7555,1912.7511,,,1913.2517,1913.5007,,79,79,,,,,,,,,,,,,,,,bars/018.png,bars/mask007.png,,,,,,,,,,,,0,2,,,,,,,4,0,4,0,,,,,,,,,,,1912.7511,1913.2516,1913.5007,1915.9367,space,2.4185,,1915.9368,71,11,1916.9385,1916.9385,1916.9434,,,,0,4,4,4,1,150,90,,,,,,,,
,,60871d7dcbf3bd9bf2c40be8,65af559cac09f8926668b570,2024-01-23_07h59.48.104,bars,2023.2.3,Win32,59.88023952,657b66ea316d21385b68909f,,,,,,,,,,,1916.9435,1917.9396,,,1918.4398,1918.6904,,50,50,,,,,,,,,,,,,,,,bars/000.png,bars/mask008.png,,,,,,,,,,,,2,1,,,,,,,2,2,3,1,,,,,,,,,,,1917.9396,1918.4398,1918.6904,1923.8447,space,5.1379,,1923.8448,10,85,1924.8453,1924.8453,1924.851,,,,0,5,5,5,1,40,145,,,,,,,,
,,60871d7dcbf3bd9bf2c40be8,65af559cac09f8926668b570,2024-01-23_07h59.48.104,bars,2023.2.3,Win32,59.88023952,657b66ea316d21385b68909f,,,,,,,,,,,1924.8511,1925.8464,,,1926.3479,1926.5968,,37,37,,,,,,,,,,,,,,,,bars/018.png,bars/mask009.png,,,,,,,,,,,,0,2,,,,,,,0,4,1,3,,,,,,,,,,,1925.8464,1926.3479,1926.5969,1929.2001,space,2.5864,,1929.2001,67,53,1930.2018,1930.2019,1930.2029,,,,0,6,6,6,1,150,90,,,,,,,,
,,60871d7dcbf3bd9bf2c40be8,65af559cac09f8926668b570,2024-01-23_07h59.48.104,bars,2023.2.3,Win32,59.88023952,657b66ea316d21385b68909f,,,,,,,,,,,1930.203,1931.2028,,,1931.7025,1931.9529,,142,142,,,,,,,,,,,,,,,,bars/035.png,bars/mask002.png,,,,,,,,,,,,0,1,,,,,,,0,6,0,7,,,,,,,,,,,1931.2029,1931.7025,1931.9529,1933.6552,space,1.6861,,1933.6552,33,82,1934.6558,1934.6559,1934.6615,,,,0,7,7,7,1,175,60,,,,,,,,
,,60871d7dcbf3bd9bf2c40be8,65af559cac09f8926668b570,2024-01-23_07h59.48.104,bars,2023.2.3,Win32,59.88023952,657b66ea316d21385b68909f,,,,,,,,,,,1934.6616,1935.6561,,,1936.1578,1936.4077,,35,35,,,,,,,,,,,,,,,,bars/025.png,bars/mask005.png,,,,,,,,,,,,7,2,,,,,,,2,8,2,8,,,,,,,,,,,1935.6561,1936.1578,1936.4077,1938.9774,space,2.5538,,1938.9775,70,5,1939.978,1939.978,1939.9834,,,,0,8,8,8,1,105,40,,,,,,,,
,,60871d7dcbf3bd9bf2c40be8,65af559cac09f8926668b570,2024-01-23_07h59.48.104,bars,2023.2.3,Win32,59.88023952,657b66ea316d21385b68909f,,,,,,,,,,,1939.9835,1940.9789,,,1941.4792,1941.7295,,75,75,,,,,,,,,,,,,,,,bars/045.png,bars/mask007.png,,,,,,,,,,,,1,1,,,,,,,4,6,4,7,,,,,,,,,,,1940.979,1941.4792,1941.7295,1944.4492,space,2.7028,,1944.4492,25,65,1945.4502,1945.4502,1945.4557,,,,0,9,9,9,1,100,10,,,,,,,,
,,60871d7dcbf3bd9bf2c40be8,65af559cac09f8926668b570,2024-01-23_07h59.48.104,bars,2023.2.3,Win32,59.88023952,657b66ea316d21385b68909f,,,,,,,,,,,1945.4558,1946.4513,,,1946.9513,1947.2018,,17,17,,,,,,,,,,,,,,,,bars/049.png,bars/mask008.png,,,,,,,,,,,,0,1,,,,,,,2,8,0,8,,,,,,,,,,,1946.4513,1946.9513,1947.2018,1951.489,space,4.2709,,1951.489,37,82,1952.4906,1952.4906,1952.4955,,,,0,10,10,10,1,160,115,,,,,,,,
,,60871d7dcbf3bd9bf2c40be8,65af559cac09f8926668b570,2024-01-23_07h59.48.104,bars,2023.2.3,Win32,59.88023952,657b66ea316d21385b68909f,,,,,,,,,,,1952.4956,1953.4902,,,1953.9919,1954.2423,,28,208,,,,,,,,,,,,,,,,bars/048.png,bars/mask001.png,,,,,,,,,,,,1,1,,,,,,,4,10,4,8,,,,,,,,,,,1953.4902,1953.9919,1954.2424,1958.0623,space,3.8034,,1958.0624,22,33,1959.0634,1959.0635,1959.0683,,,,0,11,11,11,1,50,175,,,,,,,,
