init_variables.started,init_variables.stopped,participant,session,date,expName,psychopyVersion,OS,frameRate,study_id,instruction_exp.started,instruction_exp.stopped,key_resp_8.keys,key_resp_8.rt,key_resp_8.duration,instruction_single.started,instruction_single.stopped,key_resp_2.keys,key_resp_2.rt,key_resp_2.duration,interval.started,interval.stopped,cue_single.started,cue_single.stopped,mask.started,mask.stopped,ori_response_single.started,res_ori,res,ori_response_single.stopped,key_resp_single.keys,key_resp_single.rt,key_resp_single.duration,disp_single.started,disp_single.stopped,key_resp.keys,key_resp.rt,key_resp.duration,single.thisRepN,single.thisTrialN,single.thisN,single.thisIndex,single.ran,ori,path,mask_path,instruction_bandit.started,instruction_bandit.stopped,key_resp_6.keys,key_resp_6.rt,key_resp_6.duration,cue_bandit.started,cue_bandit.stopped,bandit_res.keys,bandit_res.rt,bandit_res.duration,outcome_bandit.started,rew,action,outcome_bandit.stopped,bandit.thisRepN,bandit.thisTrialN,bandit.thisN,bandit.thisIndex,bandit.ran,actual_rew1,actual_rew2,rew1,rew2,instruction_task.started,instruction_task.stopped,key_resp_7.keys,key_resp_7.rt,key_resp_7.duration,wait_ready.started,wait_ready.stopped,key_resp_3.keys,key_resp_3.rt,key_resp_3.duration,cue.started,cue.stopped,ori_response.started,ori_response.stopped,key_resp_5.keys,key_resp_5.rt,key_resp_5.duration,outcome.started,diff1,diff2,outcome.stopped,disp_outcome_practice.started,disp_outcome_practice.stopped,key_resp_4.keys,key_resp_4.rt,key_resp_4.duration,trials.thisRepN,trials.thisTrialN,trials.thisN,trials.thisIndex,trials.ran,ori1,ori2,break_blk.started,break_blk.stopped,block.thisRepN,block.thisTrialN,block.thisN,block.thisIndex,block.ran,condition_file
0.0002,0.0004,5ff4a242cbe069bc27d9278b,65af75882cf40634cd5d7505,2024-01-23_09h19.43.909,bars,2023.2.3,Win32,60.24096386,657b66ea316d21385b68909f,,,,,,,,,,,,,,,,,,,,,,,,,,,,,,,,,,,,,,,,,,,,,,,,,,,,,,,,,,,,,,,,,,,,,,,,,,,,,,,,,,,,,,,,,,,,,,,,,,,,
,,5ff4a242cbe069bc27d9278b,65af75882cf40634cd5d7505,2024-01-23_09h19.43.909,bars,2023.2.3,Win32,60.24096386,657b66ea316d21385b68909f,0.0005,6.5939,y,6.5818,,,,,,,,,,,,,,,,,,,,,,,,,,,,,,,,,,,,,,,,,,,,,,,,,,,,,,,,,,,,,,,,,,,,,,,,,,,,,,,,,,,,,,,,,,,,,,,,
,,5ff4a242cbe069bc27d9278b,65af75882cf40634cd5d7505,2024-01-23_09h19.43.909,bars,2023.2.3,Win32,60.24096386,657b66ea316d21385b68909f,,,,,,6.594,18.4269,space,11.8079,,,,,,,,,,,,,,,,,,,,,,,,,,,,,,,,,,,,,,,,,,,,,,,,,,,,,,,,,,,,,,,,,,,,,,,,,,,,,,,,,,,,,,,,,,,
,,5ff4a242cbe069bc27d9278b,65af75882cf40634cd5d7505,2024-01-23_09h19.43.909,bars,2023.2.3,Win32,60.24096386,657b66ea316d21385b68909f,,,,,,,,,,,18.4302,19.4268,19.4269,19.9269,19.9271,20.1768,20.1769,14,194,29.66,space,9.4414,,29.6601,43.0262,space,13.3338,,0,0,0,8,1,160,bars/single008.png,bars/mask004.png,,,,,,,,,,,,,,,,,,,,,,,,,,,,,,,,,,,,,,,,,,,,,,,,,,,,,,,,,,,,,,,,
,,5ff4a242cbe069bc27d9278b,65af75882cf40634cd5d7505,2024-01-23_09h19.43.909,bars,2023.2.3,Win32,60.24096386,657b66ea316d21385b68909f,,,,,,,,,,,43.0265,44.0258,44.0258,44.526,44.526,44.7757,44.7757,93,93,48.2295,space,3.4497,,48.2296,49.909,space,1.6567,,0,1,1,4,1,95,bars/single004.png,bars/mask004.png,,,,,,,,,,,,,,,,,,,,,,,,,,,,,,,,,,,,,,,,,,,,,,,,,,,,,,,,,,,,,,,,
,,5ff4a242cbe069bc27d9278b,65af75882cf40634cd5d7505,2024-01-23_09h19.43.909,bars,2023.2.3,Win32,60.24096386,657b66ea316d21385b68909f,,,,,,,,,,,49.9092,50.9087,50.9087,51.4087,51.4087,51.6588,51.6588,17,197,53.8253,space,2.1525,,53.8253,56.2585,space,2.4076,,0,2,2,9,1,20,bars/single009.png,bars/mask006.png,,,,,,,,,,,,,,,,,,,,,,,,,,,,,,,,,,,,,,,,,,,,,,,,,,,,,,,,,,,,,,,,
,,5ff4a242cbe069bc27d9278b,65af75882cf40634cd5d7505,2024-01-23_09h19.43.909,bars,2023.2.3,Win32,60.24096386,657b66ea316d21385b68909f,,,,,,,,,,,56.2588,57.2631,57.2631,57.7585,57.7585,57.9966,57.9967,178,178,61.4751,space,3.4713,,61.4751,63.2955,space,1.7988,,0,3,3,6,1,175,bars/single006.png,bars/mask005.png,,,,,,,,,,,,,,,,,,,,,,,,,,,,,,,,,,,,,,,,,,,,,,,,,,,,,,,,,,,,,,,,
,,5ff4a242cbe069bc27d9278b,65af75882cf40634cd5d7505,2024-01-23_09h19.43.909,bars,2023.2.3,Win32,60.24096386,657b66ea316d21385b68909f,,,,,,,,,,,63.2958,64.2915,64.2915,64.7915,64.7916,65.0418,65.0418,24,204,69.0081,space,3.9611,,69.0082,71.1414,space,2.0995,,0,4,4,3,1,20,bars/single003.png,bars/mask005.png,,,,,,,,,,,,,,,,,,,,,,,,,,,,,,,,,,,,,,,,,,,,,,,,,,,,,,,,,,,,,,,,
,,5ff4a242cbe069bc27d9278b,65af75882cf40634cd5d7505,2024-01-23_09h19.43.909,bars,2023.2.3,Win32,60.24096386,657b66ea316d21385b68909f,,,,,,,,,,,71.1416,72.1461,72.1461,72.6412,72.6412,72.8795,72.8796,120,120,76.4911,space,3.5913,,76.4911,77.1744,space,0.6496,,0,5,5,2,1,145,bars/single002.png,bars/mask003.png,,,,,,,,,,,,,,,,,,,,,,,,,,,,,,,,,,,,,,,,,,,,,,,,,,,,,,,,,,,,,,,,
,,5ff4a242cbe069bc27d9278b,65af75882cf40634cd5d7505,2024-01-23_09h19.43.909,bars,2023.2.3,Win32,60.24096386,657b66ea316d21385b68909f,,,,,,,,,,,77.1746,78.179,78.179,78.6742,78.6742,78.9122,78.9123,85,85,82.6412,space,3.715,,82.6412,83.824,space,1.1607,,0,6,6,5,1,55,bars/single005.png,bars/mask008.png,,,,,,,,,,,,,,,,,,,,,,,,,,,,,,,,,,,,,,,,,,,,,,,,,,,,,,,,,,,,,,,,
,,5ff4a242cbe069bc27d9278b,65af75882cf40634cd5d7505,2024-01-23_09h19.43.909,bars,2023.2.3,Win32,60.24096386,657b66ea316d21385b68909f,,,,,,,,,,,83.8242,84.824,84.824,85.3238,85.3239,85.5749,85.5749,17,17,87.2076,space,1.6207,,87.2076,88.0908,space,0.8506,,0,7,7,1,1,20,bars/single001.png,bars/mask006.png,,,,,,,,,,,,,,,,,,,,,,,,,,,,,,,,,,,,,,,,,,,,,,,,,,,,,,,,,,,,,,,,
,,5ff4a242cbe069bc27d9278b,65af75882cf40634cd5d7505,2024-01-23_09h19.43.909,bars,2023.2.3,Win32,60.24096386,657b66ea316d21385b68909f,,,,,,,,,,,88.0909,89.0906,89.0906,89.5905,89.5905,89.8403,89.8404,28,28,91.5572,space,1.7067,,91.5572,92.2451,space,0.6664,,0,8,8,0,1,150,bars/single000.png,bars/mask006.png,,,,,,,,,,,,,,,,,,,,,,,,,,,,,,,,,,,,,,,,,,,,,,,,,,,,,,,,,,,,,,,,
,,5ff4a242cbe069bc27d9278b,65af75882cf40634cd5d7505,2024-01-23_09h19.43.909,bars,2023.2.3,Win32,60.24096386,657b66ea316d21385b68909f,,,,,,,,,,,92.2454,93.2404,93.2404,93.7404,93.7405,93.9902,93.9902,45,45,97.1454,space,3.1512,,97.1454,97.8568,space,0.6858,,0,9,9,7,1,45,bars/single007.png,bars/mask009.png,,,,,,,,,,,,,,,,,,,,,,,,,,,,,,,,,,,,,,,,,,,,,,,,,,,,,,,,,,,,,,,,
,,5ff4a242cbe069bc27d9278b,65af75882cf40634cd5d7505,2024-01-23_09h19.43.909,bars,2023.2.3,Win32,60.24096386,657b66ea316d21385b68909f,,,,,,,,,,,,,,,,,,,,,,,,,,,,,,,,,,,,,97.8574,109.2235,space,11.3369,,,,,,,,,,,,,,,,,,,,,,,,,,,,,,,,,,,,,,,,,,,,,,,,,,,,,,,,,,,,
,,5ff4a242cbe069bc27d9278b,65af75882cf40634cd5d7505,2024-01-23_09h19.43.909,bars,2023.2.3,Win32,60.24096386,657b66ea316d21385b68909f,,,,,,,,,,,,,,,,,,,,,,,,,,,,,,,,,,,,,,,,,,109.2299,113.7601,left,4.5154,,113.7602,9,1,114.756,0,0,0,0,1,9,1,9,2,,,,,,,,,,,,,,,,,,,,,,,,,,,,,,,,,,,,,,,,,
,,5ff4a242cbe069bc27d9278b,65af75882cf40634cd5d7505,2024-01-23_09h19.43.909,bars,2023.2.3,Win32,60.24096386,657b66ea316d21385b68909f,,,,,,,,,,,,,,,,,,,,,,,,,,,,,,,,,,,,,,,,,,114.7564,115.9727,right,1.1898,,115.9727,1,2,116.9725,0,1,1,1,1,10,0,10,1,,,,,,,,,,,,,,,,,,,,,,,,,,,,,,,,,,,,,,,,,
,,5ff4a242cbe069bc27d9278b,65af75882cf40634cd5d7505,2024-01-23_09h19.43.909,bars,2023.2.3,Win32,60.24096386,657b66ea316d21385b68909f,,,,,,,,,,,,,,,,,,,,,,,,,,,,,,,,,,,,,,,,,,116.9726,117.6558,left,0.6701,,117.6558,10,1,118.6558,0,2,2,2,1,10,2,10,2,,,,,,,,,,,,,,,,,,,,,,,,,,,,,,,,,,,,,,,,,
,,5ff4a242cbe069bc27d9278b,65af75882cf40634cd5d7505,2024-01-23_09h19.43.909,bars,2023.2.3,Win32,60.24096386,657b66ea316d21385b68909f,,,,,,,,,,,,,,,,,,,,,,,,,,,,,,,,,,,,,,,,,,118.656,119.3558,left,0.6839,,119.3558,7,1,120.3558,0,3,3,3,1,8,4,7,3,,,,,,,,,,,,,,,,,,,,,,,,,,,,,,,,,,,,,,,,,
,,5ff4a242cbe069bc27d9278b,65af75882cf40634cd5d7505,2024-01-23_09h19.43.909,bars,2023.2.3,Win32,60.24096386,657b66ea316d21385b68909f,,,,,,,,,,,,,,,,,,,,,,,,,,,,,,,,,,,,,,,,,,120.356,120.9059,left,0.5212,,120.9059,5,1,121.9056,0,4,4,4,1,6,2,5,1,,,,,,,,,,,,,,,,,,,,,,,,,,,,,,,,,,,,,,,,,
,,5ff4a242cbe069bc27d9278b,65af75882cf40634cd5d7505,2024-01-23_09h19.43.909,bars,2023.2.3,Win32,60.24096386,657b66ea316d21385b68909f,,,,,,,,,,,,,,,,,,,,,,,,,,,,,,,,,,,,,,,,,,121.9059,122.4223,right,0.4833,,122.4224,4,2,123.4223,0,5,5,5,1,4,4,4,4,,,,,,,,,,,,,,,,,,,,,,,,,,,,,,,,,,,,,,,,,
,,5ff4a242cbe069bc27d9278b,65af75882cf40634cd5d7505,2024-01-23_09h19.43.909,bars,2023.2.3,Win32,60.24096386,657b66ea316d21385b68909f,,,,,,,,,,,,,,,,,,,,,,,,,,,,,,,,,,,,,,,,,,123.4224,123.8442,right,0.4005,,123.8442,2,2,124.8389,0,6,6,6,1,2,2,1,2,,,,,,,,,,,,,,,,,,,,,,,,,,,,,,,,,,,,,,,,,
,,5ff4a242cbe069bc27d9278b,65af75882cf40634cd5d7505,2024-01-23_09h19.43.909,bars,2023.2.3,Win32,60.24096386,657b66ea316d21385b68909f,,,,,,,,,,,,,,,,,,,,,,,,,,,,,,,,,,,,,,,,,,124.839,125.2059,left,0.3507,,125.2059,0,1,126.2056,0,7,7,7,1,0,0,0,1,,,,,,,,,,,,,,,,,,,,,,,,,,,,,,,,,,,,,,,,,
,,5ff4a242cbe069bc27d9278b,65af75882cf40634cd5d7505,2024-01-23_09h19.43.909,bars,2023.2.3,Win32,60.24096386,657b66ea316d21385b68909f,,,,,,,,,,,,,,,,,,,,,,,,,,,,,,,,,,,,,,,,,,126.2058,126.6053,right,0.3716,,126.6054,0,2,127.6101,0,8,8,8,1,0,2,1,0,,,,,,,,,,,,,,,,,,,,,,,,,,,,,,,,,,,,,,,,,
,,5ff4a242cbe069bc27d9278b,65af75882cf40634cd5d7505,2024-01-23_09h19.43.909,bars,2023.2.3,Win32,60.24096386,657b66ea316d21385b68909f,,,,,,,,,,,,,,,,,,,,,,,,,,,,,,,,,,,,,,,,,,127.6103,127.9554,right,0.3238,,127.9554,3,2,128.9554,0,9,9,9,1,2,4,2,3,,,,,,,,,,,,,,,,,,,,,,,,,,,,,,,,,,,,,,,,,
,,5ff4a242cbe069bc27d9278b,65af75882cf40634cd5d7505,2024-01-23_09h19.43.909,bars,2023.2.3,Win32,60.24096386,657b66ea316d21385b68909f,,,,,,,,,,,,,,,,,,,,,,,,,,,,,,,,,,,,,,,,,,128.9557,129.2886,right,0.3055,,129.2886,3,2,130.2886,0,10,10,10,1,0,2,0,3,,,,,,,,,,,,,,,,,,,,,,,,,,,,,,,,,,,,,,,,,
,,5ff4a242cbe069bc27d9278b,65af75882cf40634cd5d7505,2024-01-23_09h19.43.909,bars,2023.2.3,Win32,60.24096386,657b66ea316d21385b68909f,,,,,,,,,,,,,,,,,,,,,,,,,,,,,,,,,,,,,,,,,,130.2889,130.6556,right,0.3455,,130.6556,3,2,131.6552,0,11,11,11,1,0,4,0,3,,,,,,,,,,,,,,,,,,,,,,,,,,,,,,,,,,,,,,,,,
,,5ff4a242cbe069bc27d9278b,65af75882cf40634cd5d7505,2024-01-23_09h19.43.909,bars,2023.2.3,Win32,60.24096386,657b66ea316d21385b68909f,,,,,,,,,,,,,,,,,,,,,,,,,,,,,,,,,,,,,,,,,,131.6555,132.0218,left,0.3334,,132.0218,1,1,133.0222,0,12,12,12,1,2,6,1,6,,,,,,,,,,,,,,,,,,,,,,,,,,,,,,,,,,,,,,,,,
,,5ff4a242cbe069bc27d9278b,65af75882cf40634cd5d7505,2024-01-23_09h19.43.909,bars,2023.2.3,Win32,60.24096386,657b66ea316d21385b68909f,,,,,,,,,,,,,,,,,,,,,,,,,,,,,,,,,,,,,,,,,,133.0224,133.2885,right,0.238,,133.2885,3,2,134.2941,0,13,13,13,1,0,4,1,3,,,,,,,,,,,,,,,,,,,,,,,,,,,,,,,,,,,,,,,,,
,,5ff4a242cbe069bc27d9278b,65af75882cf40634cd5d7505,2024-01-23_09h19.43.909,bars,2023.2.3,Win32,60.24096386,657b66ea316d21385b68909f,,,,,,,,,,,,,,,,,,,,,,,,,,,,,,,,,,,,,,,,,,134.2944,134.6552,right,0.3381,,134.6552,7,2,135.6551,0,14,14,14,1,2,6,2,7,,,,,,,,,,,,,,,,,,,,,,,,,,,,,,,,,,,,,,,,,
,,5ff4a242cbe069bc27d9278b,65af75882cf40634cd5d7505,2024-01-23_09h19.43.909,bars,2023.2.3,Win32,60.24096386,657b66ea316d21385b68909f,,,,,,,,,,,,,,,,,,,,,,,,,,,,,,,,,,,,,,,,,,135.6552,135.9718,right,0.3076,,135.9718,9,2,136.9715,0,15,15,15,1,4,8,3,9,,,,,,,,,,,,,,,,,,,,,,,,,,,,,,,,,,,,,,,,,
,,5ff4a242cbe069bc27d9278b,65af75882cf40634cd5d7505,2024-01-23_09h19.43.909,bars,2023.2.3,Win32,60.24096386,657b66ea316d21385b68909f,,,,,,,,,,,,,,,,,,,,,,,,,,,,,,,,,,,,,,,,,,136.9717,137.239,right,0.2633,,137.239,7,2,138.2384,0,16,16,16,1,6,6,7,7,,,,,,,,,,,,,,,,,,,,,,,,,,,,,,,,,,,,,,,,,
,,5ff4a242cbe069bc27d9278b,65af75882cf40634cd5d7505,2024-01-23_09h19.43.909,bars,2023.2.3,Win32,60.24096386,657b66ea316d21385b68909f,,,,,,,,,,,,,,,,,,,,,,,,,,,,,,,,,,,,,,,,,,138.2385,138.505,right,0.2433,,138.505,5,2,139.5048,0,17,17,17,1,8,4,9,5,,,,,,,,,,,,,,,,,,,,,,,,,,,,,,,,,,,,,,,,,
,,5ff4a242cbe069bc27d9278b,65af75882cf40634cd5d7505,2024-01-23_09h19.43.909,bars,2023.2.3,Win32,60.24096386,657b66ea316d21385b68909f,,,,,,,,,,,,,,,,,,,,,,,,,,,,,,,,,,,,,,,,,,139.505,139.8049,left,0.2666,,139.8049,5,1,140.8084,0,18,18,18,1,6,2,5,1,,,,,,,,,,,,,,,,,,,,,,,,,,,,,,,,,,,,,,,,,
,,5ff4a242cbe069bc27d9278b,65af75882cf40634cd5d7505,2024-01-23_09h19.43.909,bars,2023.2.3,Win32,60.24096386,657b66ea316d21385b68909f,,,,,,,,,,,,,,,,,,,,,,,,,,,,,,,,,,,,,,,,,,140.8086,141.055,left,0.2297,,141.055,7,1,142.0549,0,19,19,19,1,8,0,7,0,,,,,,,,,,,,,,,,,,,,,,,,,,,,,,,,,,,,,,,,,
,,5ff4a242cbe069bc27d9278b,65af75882cf40634cd5d7505,2024-01-23_09h19.43.909,bars,2023.2.3,Win32,60.24096386,657b66ea316d21385b68909f,,,,,,,,,,,,,,,,,,,,,,,,,,,,,,,,,,,,,,,,,,,,,,,,,,,,,,,,,,,,142.0553,144.305,space,2.2186,,,,,,,,,,,,,,,,,,,,,,,,,,,,,,,,,,,,,
,,5ff4a242cbe069bc27d9278b,65af75882cf40634cd5d7505,2024-01-23_09h19.43.909,bars,2023.2.3,Win32,60.24096386,657b66ea316d21385b68909f,,,,,,,,,,,145.2466,146.2381,,,146.738,146.988,,62,62,,,,,,,,,,,,,,,,bars/048.png,bars/mask008.png,,,,,,,,,,,,3,1,,,,,,,5,9,5,7,,,,,,144.3115,145.2437,space,0.9173,,146.2381,146.738,146.9881,150.3048,space,3.2849,,150.305,12,67,151.3047,151.3049,155.3939,space,4.0667,,0,0,0,0,1,50,175,,,,,,,,
,,5ff4a242cbe069bc27d9278b,65af75882cf40634cd5d7505,2024-01-23_09h19.43.909,bars,2023.2.3,Win32,60.24096386,657b66ea316d21385b68909f,,,,,,,,,,,155.4009,156.4041,,,156.9043,157.1418,,172,-8,,,,,,,,,,,,,,,,bars/035.png,bars/mask003.png,,,,,,,,,,,,9,1,,,,,,,7,7,10,5,,,,,,,,,,,156.4042,156.9042,157.1419,159.1042,space,1.9495,,159.1043,3,68,160.104,160.104,162.4875,space,2.3499,,0,1,1,1,1,175,60,,,,,,,,
,,5ff4a242cbe069bc27d9278b,65af75882cf40634cd5d7505,2024-01-23_09h19.43.909,bars,2023.2.3,Win32,60.24096386,657b66ea316d21385b68909f,,,,,,,,,,,162.4877,163.492,,,163.9871,164.2372,,156,-24,,,,,,,,,,,,,,,,bars/018.png,bars/mask001.png,,,,,,,,,,,,5,1,,,,,,,5,5,6,3,,,,,,,,,,,163.4921,163.9871,164.2372,166.4424,space,2.2012,,166.4426,6,66,167.437,167.437,170.1369,space,2.6772,,0,2,2,2,1,150,90,,,,,,,,
,,5ff4a242cbe069bc27d9278b,65af75882cf40634cd5d7505,2024-01-23_09h19.43.909,bars,2023.2.3,Win32,60.24096386,657b66ea316d21385b68909f,,,,,,,,,,,170.1372,171.137,,,171.637,171.8868,,178,178,,,,,,,,,,,,,,,,bars/031.png,bars/mask008.png,,,,,,,,,,,,0,2,,,,,,,7,3,6,6,,,,,,,,,,,171.137,171.637,171.8868,174.3033,space,2.4119,,174.3034,58,37,175.3067,175.3067,176.2256,space,0.901,,0,3,3,3,1,120,35,,,,,,,,
,,5ff4a242cbe069bc27d9278b,65af75882cf40634cd5d7505,2024-01-23_09h19.43.909,bars,2023.2.3,Win32,60.24096386,657b66ea316d21385b68909f,,,,,,,,,,,176.2257,177.2198,,,177.7201,177.9747,,25,205,,,,,,,,,,,,,,,,bars/040.png,bars/mask007.png,,,,,,,,,,,,2,2,,,,,,,9,5,9,6,,,,,,,,,,,177.2199,177.7201,177.9749,179.3198,space,1.3326,,179.3198,65,20,180.3197,180.3198,181.2866,space,0.937,,0,4,4,4,1,140,5,,,,,,,,
,,5ff4a242cbe069bc27d9278b,65af75882cf40634cd5d7505,2024-01-23_09h19.43.909,bars,2023.2.3,Win32,60.24096386,657b66ea316d21385b68909f,,,,,,,,,,,181.287,182.2864,,,182.7863,183.0365,,23,23,,,,,,,,,,,,,,,,bars/005.png,bars/mask005.png,,,,,,,,,,,,5,1,,,,,,,10,7,9,6,,,,,,,,,,,182.2864,182.7863,183.0366,185.6863,space,2.6339,,185.6864,13,63,186.6862,186.6862,187.4529,space,0.7329,,0,5,5,5,1,10,140,,,,,,,,
,,5ff4a242cbe069bc27d9278b,65af75882cf40634cd5d7505,2024-01-23_09h19.43.909,bars,2023.2.3,Win32,60.24096386,657b66ea316d21385b68909f,,,,,,,,,,,187.4532,188.4528,,,188.9527,189.1907,,78,258,,,,,,,,,,,,,,,,bars/019.png,bars/mask004.png,,,,,,,,,,,,0,2,,,,,,,8,5,7,4,,,,,,,,,,,188.4529,188.9526,189.1908,193.0529,space,3.8465,,193.0529,33,27,194.0524,194.0524,194.7859,space,0.7006,,0,6,6,6,1,45,105,,,,,,,,
,,5ff4a242cbe069bc27d9278b,65af75882cf40634cd5d7505,2024-01-23_09h19.43.909,bars,2023.2.3,Win32,60.24096386,657b66ea316d21385b68909f,,,,,,,,,,,194.7861,195.7858,,,196.274,196.5192,,29,29,,,,,,,,,,,,,,,,bars/040.png,bars/mask007.png,,,,,,,,,,,,2,2,,,,,,,6,7,6,8,,,,,,,,,,,195.7858,196.2739,196.5192,199.619,space,3.0913,,199.619,69,24,200.6236,200.6237,201.0524,space,0.406,,0,7,7,7,1,140,5,,,,,,,,
,,5ff4a242cbe069bc27d9278b,65af75882cf40634cd5d7505,2024-01-23_09h19.43.909,bars,2023.2.3,Win32,60.24096386,657b66ea316d21385b68909f,,,,,,,,,,,201.0526,202.0521,,,202.5521,202.8022,,163,163,,,,,,,,,,,,,,,,bars/007.png,bars/mask009.png,,,,,,,,,,,,5,1,,,,,,,8,5,9,6,,,,,,,,,,,202.0521,202.552,202.8022,205.4739,space,2.6505,,205.4739,12,72,206.4688,206.4688,207.1688,space,0.676,,0,8,8,8,1,175,55,,,,,,,,
,,5ff4a242cbe069bc27d9278b,65af75882cf40634cd5d7505,2024-01-23_09h19.43.909,bars,2023.2.3,Win32,60.24096386,657b66ea316d21385b68909f,,,,,,,,,,,207.169,208.1733,,,208.6685,208.9184,,130,130,,,,,,,,,,,,,,,,bars/035.png,bars/mask002.png,,,,,,,,,,,,0,1,,,,,,,10,7,10,8,,,,,,,,,,,208.1734,208.6685,208.9184,212.8352,space,3.9081,,212.8353,45,70,213.8349,213.8349,214.3571,space,0.5005,,0,9,9,9,1,175,60,,,,,,,,
,,5ff4a242cbe069bc27d9278b,65af75882cf40634cd5d7505,2024-01-23_09h19.43.909,bars,2023.2.3,Win32,60.24096386,657b66ea316d21385b68909f,,,,,,,,,,,214.3574,215.3516,,,215.8517,216.1065,,167,-13,,,,,,,,,,,,,,,,bars/016.png,bars/mask000.png,,,,,,,,,,,,8,2,,,,,,,8,9,8,9,,,,,,,,,,,215.3516,215.8517,216.1065,219.2185,space,3.1048,,219.2185,53,2,220.218,220.2181,220.7681,space,0.5186,,0,10,10,10,1,40,165,,,,,,,,
,,5ff4a242cbe069bc27d9278b,65af75882cf40634cd5d7505,2024-01-23_09h19.43.909,bars,2023.2.3,Win32,60.24096386,657b66ea316d21385b68909f,,,,,,,,,,,220.7684,221.768,,,222.2679,222.5181,,94,94,,,,,,,,,,,,,,,,bars/038.png,bars/mask008.png,,,,,,,,,,,,2,2,,,,,,,6,10,5,10,,,,,,,,,,,221.7681,222.2679,222.5181,224.4346,space,1.909,,224.4346,71,24,225.4392,225.4392,226.0178,space,0.5541,,0,11,11,11,1,165,70,,,,,,,,
,,5ff4a242cbe069bc27d9278b,65af75882cf40634cd5d7505,2024-01-23_09h19.43.909,bars,2023.2.3,Win32,60.24096386,657b66ea316d21385b68909f,,,,,,,,,,,226.0181,227.0218,,,227.518,227.7678,,169,-11,,,,,,,,,,,,,,,,bars/040.png,bars/mask004.png,,,,,,,,,,,,4,2,,,,,,,8,10,10,8,,,,,,,,,,,227.0218,227.518,227.7678,229.4558,space,1.6842,,229.4558,29,16,230.451,230.451,231.151,space,0.6705,,0,12,12,12,1,140,5,,,,,,,,
,,5ff4a242cbe069bc27d9278b,65af75882cf40634cd5d7505,2024-01-23_09h19.43.909,bars,2023.2.3,Win32,60.24096386,657b66ea316d21385b68909f,,,,,,,,,,,231.1512,232.1508,,,232.651,232.9056,,85,85,,,,,,,,,,,,,,,,bars/046.png,bars/mask008.png,,,,,,,,,,,,8,2,,,,,,,10,10,10,8,,,,,,,,,,,232.1508,232.6509,232.9057,235.6176,space,2.6875,,235.6176,70,0,236.6175,236.6176,237.3341,space,0.6876,,0,13,13,13,1,155,85,,,,,,,,
,,5ff4a242cbe069bc27d9278b,65af75882cf40634cd5d7505,2024-01-23_09h19.43.909,bars,2023.2.3,Win32,60.24096386,657b66ea316d21385b68909f,,,,,,,,,,,237.3343,238.3339,,,238.834,239.0838,,101,101,,,,,,,,,,,,,,,,bars/041.png,bars/mask000.png,,,,,,,,,,,,4,2,,,,,,,8,8,7,8,,,,,,,,,,,238.3339,238.834,239.0839,241.6392,space,2.5513,,241.6393,81,16,242.6338,242.6338,243.5504,space,0.8833,,0,14,14,14,1,20,85,,,,,,,,
,,5ff4a242cbe069bc27d9278b,65af75882cf40634cd5d7505,2024-01-23_09h19.43.909,bars,2023.2.3,Win32,60.24096386,657b66ea316d21385b68909f,,,,,,,,,,,243.5507,244.5503,,,245.0503,245.2885,,167,-13,,,,,,,,,,,,,,,,bars/000.png,bars/mask009.png,,,,,,,,,,,,2,2,,,,,,,6,6,7,6,,,,,,,,,,,244.5504,245.0503,245.2885,247.1669,space,1.8628,,247.1669,53,22,248.1666,248.1667,248.7052,space,0.5168,,0,15,15,15,1,40,145,,,,,,,,
,,5ff4a242cbe069bc27d9278b,65af75882cf40634cd5d7505,2024-01-23_09h19.43.909,bars,2023.2.3,Win32,60.24096386,657b66ea316d21385b68909f,,,,,,,,,,,248.7054,249.7001,,,250.1999,250.4546,,84,84,,,,,,,,,,,,,,,,bars/034.png,bars/mask007.png,,,,,,,,,,,,1,2,,,,,,,8,4,7,2,,,,,,,,,,,249.7001,250.1998,250.4547,252.5882,space,2.1306,,252.5882,41,19,253.5831,253.5831,253.9664,space,0.3613,,0,16,16,16,1,125,65,,,,,,,,
,,5ff4a242cbe069bc27d9278b,65af75882cf40634cd5d7505,2024-01-23_09h19.43.909,bars,2023.2.3,Win32,60.24096386,657b66ea316d21385b68909f,,,,,,,,,,,253.9666,254.9664,,,255.4662,255.7163,,141,141,,,,,,,,,,,,,,,,bars/007.png,bars/mask004.png,,,,,,,,,,,,0,1,,,,,,,10,2,9,2,,,,,,,,,,,254.9664,255.4662,255.7163,256.5663,space,0.8378,,256.5664,34,86,257.5663,257.5664,258.2498,space,0.6506,,0,17,17,17,1,175,55,,,,,,,,
,,5ff4a242cbe069bc27d9278b,65af75882cf40634cd5d7505,2024-01-23_09h19.43.909,bars,2023.2.3,Win32,60.24096386,657b66ea316d21385b68909f,,,,,,,,,,,258.25,259.2495,,,259.7374,259.9828,,178,178,,,,,,,,,,,,,,,,bars/035.png,bars/mask009.png,,,,,,,,,,,,5,1,,,,,,,8,0,6,0,,,,,,,,,,,259.2495,259.7374,259.9829,262.6663,space,2.6588,,262.6663,3,62,263.6659,263.6659,264.1043,space,0.4168,,0,18,18,18,1,175,60,,,,,,,,
,,5ff4a242cbe069bc27d9278b,65af75882cf40634cd5d7505,2024-01-23_09h19.43.909,bars,2023.2.3,Win32,60.24096386,657b66ea316d21385b68909f,,,,,,,,,,,264.1046,265.0991,,,265.5991,265.8538,,94,274,,,,,,,,,,,,,,,,bars/006.png,bars/mask005.png,,,,,,,,,,,,2,2,,,,,,,10,0,10,2,,,,,,,,,,,265.0993,265.599,265.8539,270.299,space,4.4236,,270.299,59,6,271.299,271.299,271.7988,space,0.4765,,0,19,19,19,1,35,100,,,,,,,,
,,5ff4a242cbe069bc27d9278b,65af75882cf40634cd5d7505,2024-01-23_09h19.43.909,bars,2023.2.3,Win32,60.24096386,657b66ea316d21385b68909f,,,,,,,,,,,271.7991,272.799,,,273.3036,273.5489,,178,-2,,,,,,,,,,,,,,,,bars/048.png,bars/mask001.png,,,,,,,,,,,,0,2,,,,,,,10,0,10,0,,,,,,,,,,,272.799,273.3036,273.5489,275.7323,space,2.1732,,275.7323,52,3,276.732,276.732,277.1322,space,0.366,,0,20,20,20,1,50,175,,,,,,,,
,,5ff4a242cbe069bc27d9278b,65af75882cf40634cd5d7505,2024-01-23_09h19.43.909,bars,2023.2.3,Win32,60.24096386,657b66ea316d21385b68909f,,,,,,,,,,,277.1324,278.132,,,278.632,278.882,,45,45,,,,,,,,,,,,,,,,bars/006.png,bars/mask003.png,,,,,,,,,,,,3,1,,,,,,,8,0,5,0,,,,,,,,,,,278.132,278.632,278.882,280.6535,space,1.7677,,280.6535,10,55,281.6486,281.6486,281.9822,space,0.3118,,0,21,21,21,1,35,100,,,,,,,,
,,5ff4a242cbe069bc27d9278b,65af75882cf40634cd5d7505,2024-01-23_09h19.43.909,bars,2023.2.3,Win32,60.24096386,657b66ea316d21385b68909f,,,,,,,,,,,281.9826,282.9818,,,283.4818,283.7317,,9,189,,,,,,,,,,,,,,,,bars/034.png,bars/mask001.png,,,,,,,,,,,,0,2,,,,,,,10,0,9,0,,,,,,,,,,,282.9818,283.4818,283.7318,284.9364,space,1.2008,,284.9364,64,56,285.9318,285.9318,286.2651,space,0.2974,,0,22,22,22,1,125,65,,,,,,,,
,,5ff4a242cbe069bc27d9278b,65af75882cf40634cd5d7505,2024-01-23_09h19.43.909,bars,2023.2.3,Win32,60.24096386,657b66ea316d21385b68909f,,,,,,,,,,,286.2653,287.2536,,,287.7483,287.9984,,164,-16,,,,,,,,,,,,,,,,bars/030.png,bars/mask007.png,,,,,,,,,,,,2,1,,,,,,,10,2,9,1,,,,,,,,,,,287.2536,287.7483,287.9984,290.7815,space,2.7718,,290.7815,24,81,291.7692,291.7692,292.1481,space,0.3559,,0,23,23,23,1,140,65,,,,,,,,
,,5ff4a242cbe069bc27d9278b,65af75882cf40634cd5d7505,2024-01-23_09h19.43.909,bars,2023.2.3,Win32,60.24096386,657b66ea316d21385b68909f,,,,,,,,,,,292.1484,293.148,,,293.6481,293.8979,,77,77,,,,,,,,,,,,,,,,bars/001.png,bars/mask001.png,,,,,,,,,,,,0,2,,,,,,,8,0,8,0,,,,,,,,,,,293.148,293.6481,293.898,295.1145,space,1.2081,,295.1146,53,8,296.1146,296.1147,296.4812,space,0.3339,,0,24,24,24,1,130,85,,,,,,,,
,,5ff4a242cbe069bc27d9278b,65af75882cf40634cd5d7505,2024-01-23_09h19.43.909,bars,2023.2.3,Win32,60.24096386,657b66ea316d21385b68909f,,,,,,,,,,,296.4814,297.4812,,,297.9811,298.2202,,9,189,,,,,,,,,,,,,,,,bars/034.png,bars/mask009.png,,,,,,,,,,,,0,2,,,,,,,6,0,4,0,,,,,,,,,,,297.4812,297.981,298.2202,299.4312,space,1.1985,,299.4312,64,56,300.4188,300.4188,300.8477,space,0.4099,,0,25,25,25,1,125,65,,,,,,,,
,,5ff4a242cbe069bc27d9278b,65af75882cf40634cd5d7505,2024-01-23_09h19.43.909,bars,2023.2.3,Win32,60.24096386,657b66ea316d21385b68909f,,,,,,,,,,,300.8481,301.8477,,,302.3478,302.6016,,123,-57,,,,,,,,,,,,,,,,bars/004.png,bars/mask003.png,,,,,,,,,,,,1,2,,,,,,,4,2,3,1,,,,,,,,,,,301.8477,302.3477,302.6016,304.6976,space,2.0749,,304.6977,82,2,305.6854,305.6854,306.2693,space,0.5669,,0,26,26,26,1,25,125,,,,,,,,
,,5ff4a242cbe069bc27d9278b,65af75882cf40634cd5d7505,2024-01-23_09h19.43.909,bars,2023.2.3,Win32,60.24096386,657b66ea316d21385b68909f,,,,,,,,,,,306.2696,307.2685,,,307.7641,308.0141,,149,-31,,,,,,,,,,,,,,,,bars/039.png,bars/mask006.png,,,,,,,,,,,,0,1,,,,,,,2,0,2,0,,,,,,,,,,,307.2685,307.7641,308.0142,309.6641,space,1.637,,309.6641,26,44,310.664,310.664,311.0808,space,0.3844,,0,27,27,27,1,175,105,,,,,,,,
,,5ff4a242cbe069bc27d9278b,65af75882cf40634cd5d7505,2024-01-23_09h19.43.909,bars,2023.2.3,Win32,60.24096386,657b66ea316d21385b68909f,,,,,,,,,,,311.0811,312.0806,,,312.5807,312.8304,,105,105,,,,,,,,,,,,,,,,bars/023.png,bars/mask000.png,,,,,,,,,,,,1,2,,,,,,,0,2,1,1,,,,,,,,,,,312.0806,312.5806,312.8304,316.7804,space,3.9394,,316.7805,85,10,317.7804,317.7804,318.2636,space,0.4531,,0,28,28,28,1,20,115,,,,,,,,
,,5ff4a242cbe069bc27d9278b,65af75882cf40634cd5d7505,2024-01-23_09h19.43.909,bars,2023.2.3,Win32,60.24096386,657b66ea316d21385b68909f,,,,,,,,,,,318.2639,319.2637,,,319.7637,320.0015,,122,122,,,,,,,,,,,,,,,,bars/004.png,bars/mask008.png,,,,,,,,,,,,0,2,,,,,,,2,0,3,0,,,,,,,,,,,319.2638,319.7637,320.0015,324.2017,space,4.1835,,324.2017,83,3,325.1967,325.1967,325.7133,space,0.4927,,0,29,29,29,1,25,125,,,,,,,,
,,5ff4a242cbe069bc27d9278b,65af75882cf40634cd5d7505,2024-01-23_09h19.43.909,bars,2023.2.3,Win32,60.24096386,657b66ea316d21385b68909f,,,,,,,,,,,325.7136,326.7133,,,327.2132,327.4511,,122,122,,,,,,,,,,,,,,,,bars/045.png,bars/mask008.png,,,,,,,,,,,,1,1,,,,,,,4,2,3,1,,,,,,,,,,,326.7133,327.2132,327.4511,330.8464,space,3.3921,,330.8464,22,68,331.8342,331.8343,332.8133,space,0.9544,,0,30,30,30,1,100,10,,,,,,,,
,,5ff4a242cbe069bc27d9278b,65af75882cf40634cd5d7505,2024-01-23_09h19.43.909,bars,2023.2.3,Win32,60.24096386,657b66ea316d21385b68909f,,,,,,,,,,,332.8135,333.8016,,,334.2962,334.5344,,115,115,,,,,,,,,,,,,,,,bars/045.png,bars/mask004.png,,,,,,,,,,,,2,1,,,,,,,2,4,4,5,,,,,,,,,,,333.8016,334.2962,334.5344,338.7461,space,4.197,,338.7461,15,75,339.7459,339.7459,340.9792,space,1.2059,,0,31,31,31,1,100,10,,,,,,,,
,,5ff4a242cbe069bc27d9278b,65af75882cf40634cd5d7505,2024-01-23_09h19.43.909,bars,2023.2.3,Win32,60.24096386,657b66ea316d21385b68909f,,,,,,,,,,,340.9795,341.9794,,,342.4838,342.7291,,114,114,,,,,,,,,,,,,,,,bars/025.png,bars/mask008.png,,,,,,,,,,,,1,1,,,,,,,0,6,1,5,,,,,,,,,,,341.9794,342.4838,342.7291,345.3172,space,2.5841,,345.3173,9,74,346.3122,346.3123,346.8508,space,0.5168,,0,32,32,32,1,105,40,,,,,,,,
,,5ff4a242cbe069bc27d9278b,65af75882cf40634cd5d7505,2024-01-23_09h19.43.909,bars,2023.2.3,Win32,60.24096386,657b66ea316d21385b68909f,,,,,,,,,,,346.8509,347.8458,,,348.3457,348.6002,,97,97,,,,,,,,,,,,,,,,bars/037.png,bars/mask000.png,,,,,,,,,,,,6,2,,,,,,,0,8,0,8,,,,,,,,,,,347.8458,348.3456,348.6003,349.4956,space,0.8821,,349.4957,53,8,350.4834,350.4834,351.3124,space,0.8093,,0,33,33,33,1,150,105,,,,,,,,
,,5ff4a242cbe069bc27d9278b,65af75882cf40634cd5d7505,2024-01-23_09h19.43.909,bars,2023.2.3,Win32,60.24096386,657b66ea316d21385b68909f,,,,,,,,,,,351.3126,352.3121,,,352.812,353.0501,,21,201,,,,,,,,,,,,,,,,bars/040.png,bars/mask006.png,,,,,,,,,,,,3,2,,,,,,,0,6,0,6,,,,,,,,,,,352.3121,352.812,353.0501,356.1787,space,3.1208,,356.1788,61,16,357.183,357.183,358.1669,space,0.9668,,0,34,34,34,1,140,5,,,,,,,,
,,5ff4a242cbe069bc27d9278b,65af75882cf40634cd5d7505,2024-01-23_09h19.43.909,bars,2023.2.3,Win32,60.24096386,657b66ea316d21385b68909f,,,,,,,,,,,358.1672,359.1618,,,359.6619,359.9117,,94,94,,,,,,,,,,,,,,,,bars/025.png,bars/mask007.png,,,,,,,,,,,,0,1,,,,,,,0,8,0,7,,,,,,,,,,,359.1618,359.6619,359.9117,360.7499,space,0.8344,,360.7499,11,54,361.7497,361.7497,362.5494,space,0.7827,,0,35,35,35,1,105,40,,,,,,,,
,,5ff4a242cbe069bc27d9278b,65af75882cf40634cd5d7505,2024-01-23_09h19.43.909,bars,2023.2.3,Win32,60.24096386,657b66ea316d21385b68909f,,,,,,,,,,,362.5496,363.5449,,,364.045,364.2983,,52,52,,,,,,,,,,,,,,,,bars/029.png,bars/mask000.png,,,,,,,,,,,,5,2,,,,,,,2,6,2,6,,,,,,,,,,,363.545,364.045,364.2983,366.0282,space,1.7061,,366.0282,38,7,367.0162,367.0163,367.7115,space,0.6768,,0,36,36,36,1,90,45,,,,,,,,
,,5ff4a242cbe069bc27d9278b,65af75882cf40634cd5d7505,2024-01-23_09h19.43.909,bars,2023.2.3,Win32,60.24096386,657b66ea316d21385b68909f,,,,,,,,,,,367.7117,368.716,,,369.2114,369.466,,45,225,,,,,,,,,,,,,,,,bars/029.png,bars/mask007.png,,,,,,,,,,,,7,2,,,,,,,0,8,1,7,,,,,,,,,,,368.7161,369.2113,369.4661,372.9829,space,3.5002,,372.9829,45,0,373.9779,373.9779,374.6279,space,0.6164,,0,37,37,37,1,90,45,,,,,,,,
,,5ff4a242cbe069bc27d9278b,65af75882cf40634cd5d7505,2024-01-23_09h19.43.909,bars,2023.2.3,Win32,60.24096386,657b66ea316d21385b68909f,,,,,,,,,,,374.6281,375.6277,,,376.1277,376.3777,,145,145,,,,,,,,,,,,,,,,bars/005.png,bars/mask001.png,,,,,,,,,,,,8,2,,,,,,,2,10,5,9,,,,,,,,,,,375.6277,376.1277,376.3777,379.2327,space,2.851,,379.2327,45,5,380.2275,380.2275,380.711,space,0.4524,,0,38,38,38,1,10,140,,,,,,,,
,,5ff4a242cbe069bc27d9278b,65af75882cf40634cd5d7505,2024-01-23_09h19.43.909,bars,2023.2.3,Win32,60.24096386,657b66ea316d21385b68909f,,,,,,,,,,,380.7112,381.711,,,382.2108,382.4609,,153,153,,,,,,,,,,,,,,,,bars/016.png,bars/mask001.png,,,,,,,,,,,,6,2,,,,,,,0,10,0,10,,,,,,,,,,,381.711,382.2108,382.4609,386.3272,space,3.853,,386.3273,67,12,387.3273,387.3273,387.7108,space,0.3529,,0,39,39,39,1,40,165,,,,,,,,
,,5ff4a242cbe069bc27d9278b,65af75882cf40634cd5d7505,2024-01-23_09h19.43.909,bars,2023.2.3,Win32,60.24096386,657b66ea316d21385b68909f,,,,,,,,,,,387.711,388.7105,,,389.2151,389.4605,,50,50,,,,,,,,,,,,,,,,bars/025.png,bars/mask003.png,,,,,,,,,,,,7,2,,,,,,,2,10,3,10,,,,,,,,,,,388.7106,389.2151,389.4606,390.6772,space,1.2003,,390.6773,55,10,391.6772,391.6772,392.2153,space,0.5167,,0,40,40,40,1,105,40,,,,,,,,
,,5ff4a242cbe069bc27d9278b,65af75882cf40634cd5d7505,2024-01-23_09h19.43.909,bars,2023.2.3,Win32,60.24096386,657b66ea316d21385b68909f,,,,,,,,,,,392.2157,393.2148,,,393.7105,393.9603,,82,82,,,,,,,,,,,,,,,,bars/007.png,bars/mask000.png,,,,,,,,,,,,1,2,,,,,,,4,10,6,10,,,,,,,,,,,393.2148,393.7104,393.9603,396.2936,space,2.3044,,396.2936,87,27,397.2934,397.2934,398.2603,space,0.9327,,0,41,41,41,1,175,55,,,,,,,,
,,5ff4a242cbe069bc27d9278b,65af75882cf40634cd5d7505,2024-01-23_09h19.43.909,bars,2023.2.3,Win32,60.24096386,657b66ea316d21385b68909f,,,,,,,,,,,398.2607,399.2601,,,399.7479,399.9932,,128,128,,,,,,,,,,,,,,,,bars/040.png,bars/mask006.png,,,,,,,,,,,,1,1,,,,,,,2,10,2,10,,,,,,,,,,,399.2601,399.7479,399.9933,400.6935,space,0.6711,,400.6935,12,57,401.6933,401.6933,402.4101,space,0.6904,,0,42,42,42,1,140,5,,,,,,,,
,,5ff4a242cbe069bc27d9278b,65af75882cf40634cd5d7505,2024-01-23_09h19.43.909,bars,2023.2.3,Win32,60.24096386,657b66ea316d21385b68909f,,,,,,,,,,,402.4104,403.4098,,,403.9099,404.1599,,94,94,,,,,,,,,,,,,,,,bars/011.png,bars/mask004.png,,,,,,,,,,,,6,2,,,,,,,4,10,4,9,,,,,,,,,,,403.4098,403.9099,404.1599,404.7265,space,0.562,,404.7265,66,9,405.7303,405.7303,406.2764,space,0.516,,0,43,43,43,1,160,85,,,,,,,,
,,5ff4a242cbe069bc27d9278b,65af75882cf40634cd5d7505,2024-01-23_09h19.43.909,bars,2023.2.3,Win32,60.24096386,657b66ea316d21385b68909f,,,,,,,,,,,406.2766,407.2764,,,407.7764,408.0309,,98,98,,,,,,,,,,,,,,,,bars/037.png,bars/mask003.png,,,,,,,,,,,,6,2,,,,,,,6,8,7,8,,,,,,,,,,,407.2764,407.7764,408.031,408.4765,space,0.43,,408.4765,52,7,409.4808,409.4808,409.8147,space,0.3163,,0,44,44,44,1,150,105,,,,,,,,
,,5ff4a242cbe069bc27d9278b,65af75882cf40634cd5d7505,2024-01-23_09h19.43.909,bars,2023.2.3,Win32,60.24096386,657b66ea316d21385b68909f,,,,,,,,,,,409.8148,410.8096,,,411.3097,411.564,,27,207,,,,,,,,,,,,,,,,bars/031.png,bars/mask005.png,,,,,,,,,,,,7,2,,,,,,,4,10,2,10,,,,,,,,,,,410.8096,411.3097,411.564,415.9595,space,4.3822,,415.9595,87,8,416.964,416.964,417.4811,space,0.5001,,0,45,45,45,1,120,35,,,,,,,,
,,5ff4a242cbe069bc27d9278b,65af75882cf40634cd5d7505,2024-01-23_09h19.43.909,bars,2023.2.3,Win32,60.24096386,657b66ea316d21385b68909f,,,,,,,,,,,417.4813,418.4758,,,418.9758,419.2259,,31,211,,,,,,,,,,,,,,,,bars/013.png,bars/mask009.png,,,,,,,,,,,,2,2,,,,,,,2,8,2,6,,,,,,,,,,,418.4758,418.9757,419.2259,422.1143,space,2.8845,,422.1143,44,21,423.1089,423.1089,423.4924,space,0.3496,,0,46,46,46,1,75,10,,,,,,,,
,,5ff4a242cbe069bc27d9278b,65af75882cf40634cd5d7505,2024-01-23_09h19.43.909,bars,2023.2.3,Win32,60.24096386,657b66ea316d21385b68909f,,,,,,,,,,,423.4926,424.4923,,,424.9922,425.2422,,83,83,,,,,,,,,,,,,,,,bars/028.png,bars/mask009.png,,,,,,,,,,,,0,2,,,,,,,4,6,4,7,,,,,,,,,,,424.4923,424.9922,425.2422,425.9141,space,0.6505,,425.9141,38,37,426.9089,426.909,428.3422,space,1.4027,,0,47,47,47,1,45,120,,,,,,,,
,,5ff4a242cbe069bc27d9278b,65af75882cf40634cd5d7505,2024-01-23_09h19.43.909,bars,2023.2.3,Win32,60.24096386,657b66ea316d21385b68909f,,,,,,,,,,,428.3424,429.342,,,429.8468,430.092,,25,205,,,,,,,,,,,,,,,,bars/013.png,bars/mask000.png,,,,,,,,,,,,4,2,,,,,,,2,8,2,7,,,,,,,,,,,429.342,429.8468,430.092,433.342,space,3.2449,,433.3421,50,15,434.342,434.342,435.0467,space,0.6833,,0,48,48,48,1,75,10,,,,,,,,
,,5ff4a242cbe069bc27d9278b,65af75882cf40634cd5d7505,2024-01-23_09h19.43.909,bars,2023.2.3,Win32,60.24096386,657b66ea316d21385b68909f,,,,,,,,,,,435.047,436.0418,,,436.5418,436.7963,,174,-6,,,,,,,,,,,,,,,,bars/023.png,bars/mask005.png,,,,,,,,,,,,0,1,,,,,,,0,10,0,10,,,,,,,,,,,436.0418,436.5418,436.7963,439.3418,space,2.5346,,439.3418,26,59,440.3417,440.3417,440.951,space,0.5877,,0,49,49,49,1,20,115,,,,,,,,
,,5ff4a242cbe069bc27d9278b,65af75882cf40634cd5d7505,2024-01-23_09h19.43.909,bars,2023.2.3,Win32,60.24096386,657b66ea316d21385b68909f,,,,,,,,,,,,,,,,,,,,,,,,,,,,,,,,,,,,,,,,,,,,,,,,,,,,,,,,,,,,,,,,,,,,,,,,,,,,,,,,,,,,,,,,,,,,,440.9515,500.9438,0,0,0,0,1,sequence_tables/blk026.csv
,,5ff4a242cbe069bc27d9278b,65af75882cf40634cd5d7505,2024-01-23_09h19.43.909,bars,2023.2.3,Win32,60.24096386,657b66ea316d21385b68909f,,,,,,,,,,,502.0921,503.0889,,,503.577,503.8222,,59,59,,,,,,,,,,,,,,,,bars/034.png,bars/mask002.png,,,,,,,,,,,,2,2,,,,,,,7,2,8,3,,,,,,500.9499,502.089,space,1.1243,,503.0889,503.577,503.8222,505.7723,space,1.9389,,505.7723,66,6,506.7761,506.7761,506.777,,,,0,0,0,0,1,125,65,,,,,,,,
,,5ff4a242cbe069bc27d9278b,65af75882cf40634cd5d7505,2024-01-23_09h19.43.909,bars,2023.2.3,Win32,60.24096386,657b66ea316d21385b68909f,,,,,,,,,,,506.7771,507.772,,,508.2601,508.5052,,158,158,,,,,,,,,,,,,,,,bars/033.png,bars/mask008.png,,,,,,,,,,,,5,2,,,,,,,9,4,8,5,,,,,,,,,,,507.772,508.26,508.5052,509.2052,space,0.6664,,509.2052,47,3,510.2052,510.2052,510.2057,,,,0,1,1,1,1,25,155,,,,,,,,
,,5ff4a242cbe069bc27d9278b,65af75882cf40634cd5d7505,2024-01-23_09h19.43.909,bars,2023.2.3,Win32,60.24096386,657b66ea316d21385b68909f,,,,,,,,,,,510.2058,511.2052,,,511.693,511.9385,,19,199,,,,,,,,,,,,,,,,bars/032.png,bars/mask009.png,,,,,,,,,,,,6,2,,,,,,,7,6,6,6,,,,,,,,,,,511.2052,511.693,511.9386,512.7386,space,0.7837,,512.7386,74,1,513.7384,513.7384,513.7389,,,,0,2,2,2,1,125,20,,,,,,,,
,,5ff4a242cbe069bc27d9278b,65af75882cf40634cd5d7505,2024-01-23_09h19.43.909,bars,2023.2.3,Win32,60.24096386,657b66ea316d21385b68909f,,,,,,,,,,,513.739,514.7383,,,515.2383,515.4883,,32,32,,,,,,,,,,,,,,,,bars/030.png,bars/mask004.png,,,,,,,,,,,,0,2,,,,,,,5,8,6,9,,,,,,,,,,,514.7383,515.2382,515.4883,516.4935,space,1.0013,,516.4935,72,33,517.4924,517.4924,517.4929,,,,0,3,3,3,1,140,65,,,,,,,,
,,5ff4a242cbe069bc27d9278b,65af75882cf40634cd5d7505,2024-01-23_09h19.43.909,bars,2023.2.3,Win32,60.24096386,657b66ea316d21385b68909f,,,,,,,,,,,517.4931,518.4929,,,518.9882,519.2263,,20,200,,,,,,,,,,,,,,,,bars/012.png,bars/mask003.png,,,,,,,,,,,,5,2,,,,,,,3,6,2,6,,,,,,,,,,,518.4929,518.9881,519.2263,521.6927,space,2.45,,521.6927,70,5,522.6881,522.6881,522.6885,,,,0,4,4,4,1,90,15,,,,,,,,
,,5ff4a242cbe069bc27d9278b,65af75882cf40634cd5d7505,2024-01-23_09h19.43.909,bars,2023.2.3,Win32,60.24096386,657b66ea316d21385b68909f,,,,,,,,,,,522.6888,523.6924,,,524.1879,524.438,,68,248,,,,,,,,,,,,,,,,bars/015.png,bars/mask007.png,,,,,,,,,,,,0,1,,,,,,,5,4,4,5,,,,,,,,,,,523.6924,524.1879,524.438,527.6712,space,3.2023,,527.6713,42,88,528.6711,528.6711,528.6772,,,,0,5,5,5,1,110,160,,,,,,,,
,,5ff4a242cbe069bc27d9278b,65af75882cf40634cd5d7505,2024-01-23_09h19.43.909,bars,2023.2.3,Win32,60.24096386,657b66ea316d21385b68909f,,,,,,,,,,,528.6774,529.6711,,,530.1711,530.4209,,105,105,,,,,,,,,,,,,,,,bars/012.png,bars/mask003.png,,,,,,,,,,,,2,1,,,,,,,3,2,3,3,,,,,,,,,,,529.6711,530.1711,530.4209,531.4043,space,0.9513,,531.4043,15,90,532.4042,532.4042,532.4047,,,,0,6,6,6,1,90,15,,,,,,,,
,,5ff4a242cbe069bc27d9278b,65af75882cf40634cd5d7505,2024-01-23_09h19.43.909,bars,2023.2.3,Win32,60.24096386,657b66ea316d21385b68909f,,,,,,,,,,,532.4049,533.4041,,,533.8921,534.1376,,112,-68,,,,,,,,,,,,,,,,bars/014.png,bars/mask006.png,,,,,,,,,,,,0,1,,,,,,,1,4,2,3,,,,,,,,,,,533.4041,533.8921,534.1376,538.3707,space,4.1997,,538.3708,32,68,539.3706,539.3706,539.3762,,,,0,7,7,7,1,80,0,,,,,,,,
,,5ff4a242cbe069bc27d9278b,65af75882cf40634cd5d7505,2024-01-23_09h19.43.909,bars,2023.2.3,Win32,60.24096386,657b66ea316d21385b68909f,,,,,,,,,,,539.3763,540.3707,,,540.8705,541.1205,,21,201,,,,,,,,,,,,,,,,bars/035.png,bars/mask000.png,,,,,,,,,,,,0,1,,,,,,,0,2,0,3,,,,,,,,,,,540.3707,540.8705,541.1205,542.904,space,1.7515,,542.9041,26,39,543.9038,543.9038,543.9093,,,,0,8,8,8,1,175,60,,,,,,,,
,,5ff4a242cbe069bc27d9278b,65af75882cf40634cd5d7505,2024-01-23_09h19.43.909,bars,2023.2.3,Win32,60.24096386,657b66ea316d21385b68909f,,,,,,,,,,,543.9094,544.9081,,,545.4037,545.6537,,91,91,,,,,,,,,,,,,,,,bars/021.png,bars/mask000.png,,,,,,,,,,,,2,2,,,,,,,0,4,0,5,,,,,,,,,,,544.9081,545.4037,545.6537,548.7204,space,3.0421,,548.7204,64,21,549.7205,549.7205,549.7265,,,,0,9,9,9,1,155,70,,,,,,,,
,,5ff4a242cbe069bc27d9278b,65af75882cf40634cd5d7505,2024-01-23_09h19.43.909,bars,2023.2.3,Win32,60.24096386,657b66ea316d21385b68909f,,,,,,,,,,,549.7266,550.7204,,,551.2202,551.4703,,120,120,,,,,,,,,,,,,,,,bars/001.png,bars/mask001.png,,,,,,,,,,,,0,1,,,,,,,0,6,0,6,,,,,,,,,,,550.7204,551.2202,551.4704,554.3036,space,2.8187,,554.3037,10,35,555.3033,555.3033,555.3096,,,,0,10,10,10,1,130,85,,,,,,,,
,,5ff4a242cbe069bc27d9278b,65af75882cf40634cd5d7505,2024-01-23_09h19.43.909,bars,2023.2.3,Win32,60.24096386,657b66ea316d21385b68909f,,,,,,,,,,,555.3098,556.3033,,,556.8037,557.0533,,2,182,,,,,,,,,,,,,,,,bars/018.png,bars/mask006.png,,,,,,,,,,,,0,1,,,,,,,2,8,2,8,,,,,,,,,,,556.3033,556.8037,557.0533,560.2201,space,3.1502,,560.2201,32,88,561.2199,561.2199,561.2254,,,,0,11,11,11,1,150,90,,,,,,,,
,,5ff4a242cbe069bc27d9278b,65af75882cf40634cd5d7505,2024-01-23_09h19.43.909,bars,2023.2.3,Win32,60.24096386,657b66ea316d21385b68909f,,,,,,,,,,,561.2256,562.2199,,,562.7197,562.9698,,126,126,,,,,,,,,,,,,,,,bars/033.png,bars/mask003.png,,,,,,,,,,,,0,2,,,,,,,4,6,5,6,,,,,,,,,,,562.2199,562.7197,562.9699,566.6031,space,3.6013,,566.6031,79,29,567.6028,567.6028,567.6089,,,,0,12,12,12,1,25,155,,,,,,,,
,,5ff4a242cbe069bc27d9278b,65af75882cf40634cd5d7505,2024-01-23_09h19.43.909,bars,2023.2.3,Win32,60.24096386,657b66ea316d21385b68909f,,,,,,,,,,,567.6089,568.6027,,,569.0911,569.336,,120,120,,,,,,,,,,,,,,,,bars/015.png,bars/mask009.png,,,,,,,,,,,,1,1,,,,,,,2,8,1,8,,,,,,,,,,,568.6028,569.0911,569.336,569.986,space,0.6258,,569.986,10,40,570.986,570.9861,570.9872,,,,0,13,13,13,1,110,160,,,,,,,,
,,5ff4a242cbe069bc27d9278b,65af75882cf40634cd5d7505,2024-01-23_09h19.43.909,bars,2023.2.3,Win32,60.24096386,657b66ea316d21385b68909f,,,,,,,,,,,570.9874,571.9859,,,572.486,572.7361,,79,79,,,,,,,,,,,,,,,,bars/006.png,bars/mask005.png,,,,,,,,,,,,3,2,,,,,,,4,10,3,10,,,,,,,,,,,571.9859,572.486,572.7361,573.4695,space,0.7174,,573.4695,44,21,574.4693,574.4693,574.4705,,,,0,14,14,14,1,35,100,,,,,,,,
,,5ff4a242cbe069bc27d9278b,65af75882cf40634cd5d7505,2024-01-23_09h19.43.909,bars,2023.2.3,Win32,60.24096386,657b66ea316d21385b68909f,,,,,,,,,,,574.4707,575.4692,,,575.9725,576.2192,,167,-13,,,,,,,,,,,,,,,,bars/024.png,bars/mask009.png,,,,,,,,,,,,8,2,,,,,,,2,10,3,9,,,,,,,,,,,575.4692,575.9725,576.2192,579.1861,space,2.9334,,579.1861,47,3,580.1896,580.1896,580.1951,,,,0,15,15,15,1,120,170,,,,,,,,
,,5ff4a242cbe069bc27d9278b,65af75882cf40634cd5d7505,2024-01-23_09h19.43.909,bars,2023.2.3,Win32,60.24096386,657b66ea316d21385b68909f,,,,,,,,,,,580.1952,581.1903,,,581.6856,581.9355,,88,88,,,,,,,,,,,,,,,,bars/026.png,bars/mask002.png,,,,,,,,,,,,7,2,,,,,,,0,10,0,8,,,,,,,,,,,581.1903,581.6856,581.9355,584.474,space,2.5344,,584.474,53,3,585.4688,585.4688,585.4744,,,,0,16,16,16,1,35,85,,,,,,,,
,,5ff4a242cbe069bc27d9278b,65af75882cf40634cd5d7505,2024-01-23_09h19.43.909,bars,2023.2.3,Win32,60.24096386,657b66ea316d21385b68909f,,,,,,,,,,,585.4745,586.4736,,,586.9689,587.2188,,8,188,,,,,,,,,,,,,,,,bars/040.png,bars/mask004.png,,,,,,,,,,,,9,2,,,,,,,2,8,2,10,,,,,,,,,,,586.4736,586.9689,587.2188,589.1021,space,1.8539,,589.1022,48,3,590.102,590.102,590.1076,,,,0,17,17,17,1,140,5,,,,,,,,
,,5ff4a242cbe069bc27d9278b,65af75882cf40634cd5d7505,2024-01-23_09h19.43.909,bars,2023.2.3,Win32,60.24096386,657b66ea316d21385b68909f,,,,,,,,,,,590.1079,591.1019,,,591.6018,591.8519,,163,163,,,,,,,,,,,,,,,,bars/016.png,bars/mask004.png,,,,,,,,,,,,9,2,,,,,,,4,10,5,10,,,,,,,,,,,591.102,591.6018,591.852,592.7855,space,0.9255,,592.7856,57,2,593.7854,593.7854,593.7859,,,,0,18,18,18,1,40,165,,,,,,,,
,,5ff4a242cbe069bc27d9278b,65af75882cf40634cd5d7505,2024-01-23_09h19.43.909,bars,2023.2.3,Win32,60.24096386,657b66ea316d21385b68909f,,,,,,,,,,,593.7861,594.7925,,,595.285,595.523,,96,96,,,,,,,,,,,,,,,,bars/011.png,bars/mask009.png,,,,,,,,,,,,6,2,,,,,,,6,10,5,10,,,,,,,,,,,594.7925,595.285,595.523,597.5351,space,2.0073,,597.5351,64,11,598.5396,598.5396,598.5402,,,,0,19,19,19,1,160,85,,,,,,,,
,,5ff4a242cbe069bc27d9278b,65af75882cf40634cd5d7505,2024-01-23_09h19.43.909,bars,2023.2.3,Win32,60.24096386,657b66ea316d21385b68909f,,,,,,,,,,,598.5404,599.535,,,600.0351,600.285,,143,143,,,,,,,,,,,,,,,,bars/009.png,bars/mask002.png,,,,,,,,,,,,0,2,,,,,,,8,10,9,10,,,,,,,,,,,599.535,600.0351,600.285,600.7568,space,0.4679,,600.7568,52,38,601.7515,601.7515,601.752,,,,0,20,20,20,1,15,105,,,,,,,,
,,5ff4a242cbe069bc27d9278b,65af75882cf40634cd5d7505,2024-01-23_09h19.43.909,bars,2023.2.3,Win32,60.24096386,657b66ea316d21385b68909f,,,,,,,,,,,601.7521,602.7513,,,603.2513,603.4893,,23,23,,,,,,,,,,,,,,,,bars/040.png,bars/mask002.png,,,,,,,,,,,,4,2,,,,,,,6,8,6,10,,,,,,,,,,,602.7514,603.2513,603.4894,606.4846,space,2.9845,,606.4846,63,18,607.4845,607.4845,607.4902,,,,0,21,21,21,1,140,5,,,,,,,,
,,5ff4a242cbe069bc27d9278b,65af75882cf40634cd5d7505,2024-01-23_09h19.43.909,bars,2023.2.3,Win32,60.24096386,657b66ea316d21385b68909f,,,,,,,,,,,607.4904,608.489,,,608.9845,609.2345,,110,110,,,,,,,,,,,,,,,,bars/011.png,bars/mask001.png,,,,,,,,,,,,1,2,,,,,,,4,6,6,5,,,,,,,,,,,608.489,608.9845,609.2345,612.8843,space,3.6389,,612.8843,50,25,613.8843,613.8844,613.8912,,,,0,22,22,22,1,160,85,,,,,,,,
,,5ff4a242cbe069bc27d9278b,65af75882cf40634cd5d7505,2024-01-23_09h19.43.909,bars,2023.2.3,Win32,60.24096386,657b66ea316d21385b68909f,,,,,,,,,,,613.8914,614.8842,,,615.3842,615.6343,,8,8,,,,,,,,,,,,,,,,bars/040.png,bars/mask008.png,,,,,,,,,,,,7,2,,,,,,,2,8,2,8,,,,,,,,,,,614.8842,615.3842,615.6343,616.5344,space,0.8957,,616.5344,48,3,617.5342,617.5343,617.5347,,,,0,23,23,23,1,140,5,,,,,,,,
,,5ff4a242cbe069bc27d9278b,65af75882cf40634cd5d7505,2024-01-23_09h19.43.909,bars,2023.2.3,Win32,60.24096386,657b66ea316d21385b68909f,,,,,,,,,,,617.5349,618.5341,,,619.0388,619.284,,169,-11,,,,,,,,,,,,,,,,bars/039.png,bars/mask008.png,,,,,,,,,,,,3,1,,,,,,,4,10,4,10,,,,,,,,,,,618.5341,619.0388,619.284,621.234,space,1.934,,621.234,6,64,622.2339,622.2339,622.2402,,,,0,24,24,24,1,175,105,,,,,,,,
,,5ff4a242cbe069bc27d9278b,65af75882cf40634cd5d7505,2024-01-23_09h19.43.909,bars,2023.2.3,Win32,60.24096386,657b66ea316d21385b68909f,,,,,,,,,,,622.2404,623.2339,,,623.7336,623.9837,,27,207,,,,,,,,,,,,,,,,bars/035.png,bars/mask003.png,,,,,,,,,,,,0,1,,,,,,,2,8,3,7,,,,,,,,,,,623.2339,623.7336,623.9837,626.1223,space,2.1346,,626.1223,32,33,627.1171,627.1171,627.1176,,,,0,25,25,25,1,175,60,,,,,,,,
,,5ff4a242cbe069bc27d9278b,65af75882cf40634cd5d7505,2024-01-23_09h19.43.909,bars,2023.2.3,Win32,60.24096386,657b66ea316d21385b68909f,,,,,,,,,,,627.1177,628.1169,,,628.6168,628.8669,,37,37,,,,,,,,,,,,,,,,bars/026.png,bars/mask000.png,,,,,,,,,,,,0,1,,,,,,,0,10,0,10,,,,,,,,,,,628.1169,628.6168,628.8669,629.3502,space,0.4613,,629.3502,2,48,630.3383,630.3383,630.3388,,,,0,26,26,26,1,35,85,,,,,,,,
,,5ff4a242cbe069bc27d9278b,65af75882cf40634cd5d7505,2024-01-23_09h19.43.909,bars,2023.2.3,Win32,60.24096386,657b66ea316d21385b68909f,,,,,,,,,,,630.3389,631.3334,,,631.8334,632.0885,,19,19,,,,,,,,,,,,,,,,bars/020.png,bars/mask007.png,,,,,,,,,,,,0,2,,,,,,,2,10,2,10,,,,,,,,,,,631.3334,631.8334,632.0885,634.4051,space,2.3135,,634.4051,84,29,635.3999,635.3999,635.4069,,,,0,27,27,27,1,115,170,,,,,,,,
,,5ff4a242cbe069bc27d9278b,65af75882cf40634cd5d7505,2024-01-23_09h19.43.909,bars,2023.2.3,Win32,60.24096386,657b66ea316d21385b68909f,,,,,,,,,,,635.4071,636.3999,,,636.8999,637.1501,,97,97,,,,,,,,,,,,,,,,bars/009.png,bars/mask009.png,,,,,,,,,,,,7,2,,,,,,,0,10,1,10,,,,,,,,,,,636.3999,636.8999,637.1501,639.9505,space,2.7963,,639.9506,82,8,640.9497,640.9497,640.9552,,,,0,28,28,28,1,15,105,,,,,,,,
,,5ff4a242cbe069bc27d9278b,65af75882cf40634cd5d7505,2024-01-23_09h19.43.909,bars,2023.2.3,Win32,60.24096386,657b66ea316d21385b68909f,,,,,,,,,,,640.9553,641.9496,,,642.4496,642.6997,,98,98,,,,,,,,,,,,,,,,bars/026.png,bars/mask002.png,,,,,,,,,,,,5,2,,,,,,,0,8,2,8,,,,,,,,,,,641.9496,642.4496,642.6997,644.1663,space,1.4614,,644.1663,63,13,645.1661,645.1662,645.1721,,,,0,29,29,29,1,35,85,,,,,,,,
,,5ff4a242cbe069bc27d9278b,65af75882cf40634cd5d7505,2024-01-23_09h19.43.909,bars,2023.2.3,Win32,60.24096386,657b66ea316d21385b68909f,,,,,,,,,,,645.1722,646.1661,,,646.6543,646.8994,,88,88,,,,,,,,,,,,,,,,bars/042.png,bars/mask000.png,,,,,,,,,,,,6,2,,,,,,,0,10,0,10,,,,,,,,,,,646.1661,646.6542,646.8994,647.5162,space,0.6005,,647.5162,57,13,648.516,648.516,648.5165,,,,0,30,30,30,1,145,75,,,,,,,,
,,5ff4a242cbe069bc27d9278b,65af75882cf40634cd5d7505,2024-01-23_09h19.43.909,bars,2023.2.3,Win32,60.24096386,657b66ea316d21385b68909f,,,,,,,,,,,648.5167,649.516,,,650.016,650.266,,107,107,,,,,,,,,,,,,,,,bars/029.png,bars/mask006.png,,,,,,,,,,,,0,1,,,,,,,0,10,0,9,,,,,,,,,,,649.5161,650.016,650.266,650.7828,space,0.5036,,650.7828,17,62,651.79,651.79,651.7922,,,,0,31,31,31,1,90,45,,,,,,,,
,,5ff4a242cbe069bc27d9278b,65af75882cf40634cd5d7505,2024-01-23_09h19.43.909,bars,2023.2.3,Win32,60.24096386,657b66ea316d21385b68909f,,,,,,,,,,,651.7924,652.7826,,,653.2825,653.5324,,80,80,,,,,,,,,,,,,,,,bars/031.png,bars/mask001.png,,,,,,,,,,,,0,1,,,,,,,0,8,0,8,,,,,,,,,,,652.7826,653.2825,653.5324,654.3493,space,0.8051,,654.3494,40,45,655.3491,655.3491,655.3496,,,,0,32,32,32,1,120,35,,,,,,,,
,,5ff4a242cbe069bc27d9278b,65af75882cf40634cd5d7505,2024-01-23_09h19.43.909,bars,2023.2.3,Win32,60.24096386,657b66ea316d21385b68909f,,,,,,,,,,,655.3497,656.349,,,656.8373,657.0824,,66,66,,,,,,,,,,,,,,,,bars/030.png,bars/mask004.png,,,,,,,,,,,,6,2,,,,,,,0,6,0,6,,,,,,,,,,,656.3491,656.8372,657.0825,659.8156,space,2.7192,,659.8156,74,1,660.8156,660.8156,660.8273,,,,0,33,33,33,1,140,65,,,,,,,,
,,5ff4a242cbe069bc27d9278b,65af75882cf40634cd5d7505,2024-01-23_09h19.43.909,bars,2023.2.3,Win32,60.24096386,657b66ea316d21385b68909f,,,,,,,,,,,660.8275,661.8155,,,662.3154,662.5654,,76,76,,,,,,,,,,,,,,,,bars/047.png,bars/mask002.png,,,,,,,,,,,,2,2,,,,,,,0,4,0,3,,,,,,,,,,,661.8155,662.3154,662.5654,664.1038,space,1.5173,,664.1039,61,6,665.0987,665.0987,665.0991,,,,0,34,34,34,1,15,70,,,,,,,,
,,5ff4a242cbe069bc27d9278b,65af75882cf40634cd5d7505,2024-01-23_09h19.43.909,bars,2023.2.3,Win32,60.24096386,657b66ea316d21385b68909f,,,,,,,,,,,665.0993,666.1031,,,666.5987,666.8368,,96,96,,,,,,,,,,,,,,,,bars/007.png,bars/mask002.png,,,,,,,,,,,,0,2,,,,,,,2,2,4,1,,,,,,,,,,,666.1032,666.5986,666.8368,667.7489,space,0.8966,,667.7489,79,41,668.7484,668.7484,668.749,,,,0,35,35,35,1,175,55,,,,,,,,
,,5ff4a242cbe069bc27d9278b,65af75882cf40634cd5d7505,2024-01-23_09h19.43.909,bars,2023.2.3,Win32,60.24096386,657b66ea316d21385b68909f,,,,,,,,,,,668.7493,669.7486,,,670.2485,670.4984,,27,27,,,,,,,,,,,,,,,,bars/025.png,bars/mask001.png,,,,,,,,,,,,0,2,,,,,,,0,0,2,0,,,,,,,,,,,669.7487,670.2485,670.4984,672.3985,space,1.8868,,672.3985,78,13,673.3982,673.3982,673.4046,,,,0,36,36,36,1,105,40,,,,,,,,
,,5ff4a242cbe069bc27d9278b,65af75882cf40634cd5d7505,2024-01-23_09h19.43.909,bars,2023.2.3,Win32,60.24096386,657b66ea316d21385b68909f,,,,,,,,,,,673.4047,674.3982,,,674.8982,675.1482,,95,95,,,,,,,,,,,,,,,,bars/026.png,bars/mask000.png,,,,,,,,,,,,1,2,,,,,,,0,2,0,1,,,,,,,,,,,674.3982,674.8982,675.1482,675.8867,space,0.7345,,675.8867,60,10,676.8815,676.8815,676.8821,,,,0,37,37,37,1,35,85,,,,,,,,
,,5ff4a242cbe069bc27d9278b,65af75882cf40634cd5d7505,2024-01-23_09h19.43.909,bars,2023.2.3,Win32,60.24096386,657b66ea316d21385b68909f,,,,,,,,,,,676.8823,677.8813,,,678.3852,678.6317,,107,107,,,,,,,,,,,,,,,,bars/041.png,bars/mask009.png,,,,,,,,,,,,1,2,,,,,,,2,4,3,2,,,,,,,,,,,677.8813,678.3852,678.6318,679.8527,space,1.2173,,679.8527,87,22,680.8479,680.848,680.8484,,,,0,38,38,38,1,20,85,,,,,,,,
,,5ff4a242cbe069bc27d9278b,65af75882cf40634cd5d7505,2024-01-23_09h19.43.909,bars,2023.2.3,Win32,60.24096386,657b66ea316d21385b68909f,,,,,,,,,,,680.8487,681.848,,,682.3527,682.5978,,129,-51,,,,,,,,,,,,,,,,bars/037.png,bars/mask000.png,,,,,,,,,,,,1,1,,,,,,,4,2,3,1,,,,,,,,,,,681.848,682.3527,682.5978,685.9479,space,3.339,,685.9479,21,24,686.9477,686.9477,686.9545,,,,0,39,39,39,1,150,105,,,,,,,,
,,5ff4a242cbe069bc27d9278b,65af75882cf40634cd5d7505,2024-01-23_09h19.43.909,bars,2023.2.3,Win32,60.24096386,657b66ea316d21385b68909f,,,,,,,,,,,686.9546,687.9476,,,688.4536,688.6976,,160,160,,,,,,,,,,,,,,,,bars/005.png,bars/mask004.png,,,,,,,,,,,,0,2,,,,,,,6,0,5,0,,,,,,,,,,,687.9476,688.4536,688.6976,689.531,space,0.817,,689.531,30,20,690.531,690.5311,690.5325,,,,0,40,40,40,1,10,140,,,,,,,,
,,5ff4a242cbe069bc27d9278b,65af75882cf40634cd5d7505,2024-01-23_09h19.43.909,bars,2023.2.3,Win32,60.24096386,657b66ea316d21385b68909f,,,,,,,,,,,690.5328,691.5311,,,692.0309,692.2807,,34,214,,,,,,,,,,,,,,,,bars/040.png,bars/mask009.png,,,,,,,,,,,,0,2,,,,,,,8,2,10,3,,,,,,,,,,,691.5311,692.0309,692.2807,694.4525,space,2.1677,,694.4526,74,29,695.4473,695.4473,695.4529,,,,0,41,41,41,1,140,5,,,,,,,,
,,5ff4a242cbe069bc27d9278b,65af75882cf40634cd5d7505,2024-01-23_09h19.43.909,bars,2023.2.3,Win32,60.24096386,657b66ea316d21385b68909f,,,,,,,,,,,695.4529,696.4475,,,696.9524,697.1973,,109,109,,,,,,,,,,,,,,,,bars/045.png,bars/mask005.png,,,,,,,,,,,,5,1,,,,,,,6,4,7,4,,,,,,,,,,,696.4475,696.9524,697.1973,700.0639,space,2.8345,,700.0639,9,81,701.0636,701.0636,701.0702,,,,0,42,42,42,1,100,10,,,,,,,,
,,5ff4a242cbe069bc27d9278b,65af75882cf40634cd5d7505,2024-01-23_09h19.43.909,bars,2023.2.3,Win32,60.24096386,657b66ea316d21385b68909f,,,,,,,,,,,701.0703,702.0637,,,702.5639,702.8136,,67,67,,,,,,,,,,,,,,,,bars/028.png,bars/mask008.png,,,,,,,,,,,,1,1,,,,,,,4,6,4,6,,,,,,,,,,,702.0637,702.5639,702.8136,704.4804,space,1.6594,,704.4804,22,53,705.4802,705.4802,705.486,,,,0,43,43,43,1,45,120,,,,,,,,
,,5ff4a242cbe069bc27d9278b,65af75882cf40634cd5d7505,2024-01-23_09h19.43.909,bars,2023.2.3,Win32,60.24096386,657b66ea316d21385b68909f,,,,,,,,,,,705.4862,706.4803,,,706.985,707.2303,,175,175,,,,,,,,,,,,,,,,bars/023.png,bars/mask002.png,,,,,,,,,,,,1,1,,,,,,,6,8,5,9,,,,,,,,,,,706.4803,706.985,707.2303,711.3635,space,4.117,,711.3635,25,60,712.3514,712.3514,712.357,,,,0,44,44,44,1,20,115,,,,,,,,
,,5ff4a242cbe069bc27d9278b,65af75882cf40634cd5d7505,2024-01-23_09h19.43.909,bars,2023.2.3,Win32,60.24096386,657b66ea316d21385b68909f,,,,,,,,,,,712.3571,713.3466,,,713.8466,714.1014,,70,70,,,,,,,,,,,,,,,,bars/032.png,bars/mask006.png,,,,,,,,,,,,0,2,,,,,,,8,10,7,10,,,,,,,,,,,713.3467,713.8465,714.1014,714.9133,space,0.8045,,714.9133,55,50,715.913,715.9131,715.9141,,,,0,45,45,45,1,125,20,,,,,,,,
,,5ff4a242cbe069bc27d9278b,65af75882cf40634cd5d7505,2024-01-23_09h19.43.909,bars,2023.2.3,Win32,60.24096386,657b66ea316d21385b68909f,,,,,,,,,,,715.9143,716.9131,,,717.4132,717.6515,,109,109,,,,,,,,,,,,,,,,bars/015.png,bars/mask009.png,,,,,,,,,,,,5,1,,,,,,,6,8,5,9,,,,,,,,,,,716.9132,717.4132,717.6515,720.163,space,2.496,,720.163,1,51,721.1628,721.1629,721.164,,,,0,46,46,46,1,110,160,,,,,,,,
,,5ff4a242cbe069bc27d9278b,65af75882cf40634cd5d7505,2024-01-23_09h19.43.909,bars,2023.2.3,Win32,60.24096386,657b66ea316d21385b68909f,,,,,,,,,,,721.1641,722.1673,,,722.663,722.9009,,85,85,,,,,,,,,,,,,,,,bars/029.png,bars/mask008.png,,,,,,,,,,,,3,1,,,,,,,4,6,3,7,,,,,,,,,,,722.1673,722.663,722.901,725.9963,space,3.0848,,725.9964,5,40,727.0006,727.0006,727.007,,,,0,47,47,47,1,90,45,,,,,,,,
,,5ff4a242cbe069bc27d9278b,65af75882cf40634cd5d7505,2024-01-23_09h19.43.909,bars,2023.2.3,Win32,60.24096386,657b66ea316d21385b68909f,,,,,,,,,,,727.0072,727.9958,,,728.4959,728.7507,,99,99,,,,,,,,,,,,,,,,bars/027.png,bars/mask001.png,,,,,,,,,,,,2,1,,,,,,,6,8,3,8,,,,,,,,,,,727.9958,728.4959,728.7507,730.7627,space,2.003,,730.7627,11,49,731.7671,731.7672,731.7737,,,,0,48,48,48,1,110,50,,,,,,,,
,,5ff4a242cbe069bc27d9278b,65af75882cf40634cd5d7505,2024-01-23_09h19.43.909,bars,2023.2.3,Win32,60.24096386,657b66ea316d21385b68909f,,,,,,,,,,,731.7737,732.7626,,,733.2624,733.517,,63,63,,,,,,,,,,,,,,,,bars/029.png,bars/mask006.png,,,,,,,,,,,,4,2,,,,,,,4,10,4,10,,,,,,,,,,,732.7626,733.2624,733.5171,734.479,space,0.9578,,734.4791,27,18,735.479,735.479,735.4852,,,,0,49,49,49,1,90,45,,,,,,,,
,,5ff4a242cbe069bc27d9278b,65af75882cf40634cd5d7505,2024-01-23_09h19.43.909,bars,2023.2.3,Win32,60.24096386,657b66ea316d21385b68909f,,,,,,,,,,,,,,,,,,,,,,,,,,,,,,,,,,,,,,,,,,,,,,,,,,,,,,,,,,,,,,,,,,,,,,,,,,,,,,,,,,,,,,,,,,,,,735.4852,795.4765,0,1,1,3,1,sequence_tables/blk010.csv
,,5ff4a242cbe069bc27d9278b,65af75882cf40634cd5d7505,2024-01-23_09h19.43.909,bars,2023.2.3,Win32,60.24096386,657b66ea316d21385b68909f,,,,,,,,,,,796.3456,797.3431,,,797.8468,798.093,,109,109,,,,,,,,,,,,,,,,bars/018.png,bars/mask001.png,,,,,,,,,,,,2,2,,,,,,,7,5,7,6,,,,,,795.4841,796.3431,space,0.8438,,797.3431,797.8468,798.0931,801.7096,space,3.5955,,801.7097,41,19,802.7097,802.7097,802.717,,,,0,0,0,0,1,150,90,,,,,,,,
,,5ff4a242cbe069bc27d9278b,65af75882cf40634cd5d7505,2024-01-23_09h19.43.909,bars,2023.2.3,Win32,60.24096386,657b66ea316d21385b68909f,,,,,,,,,,,802.7171,803.7094,,,804.2096,804.4596,,62,242,,,,,,,,,,,,,,,,bars/010.png,bars/mask009.png,,,,,,,,,,,,5,2,,,,,,,5,7,5,7,,,,,,,,,,,803.7096,804.2096,804.4597,808.1597,space,3.672,,808.1597,77,7,809.1592,809.1594,809.1669,,,,0,1,1,1,1,165,55,,,,,,,,
,,5ff4a242cbe069bc27d9278b,65af75882cf40634cd5d7505,2024-01-23_09h19.43.909,bars,2023.2.3,Win32,60.24096386,657b66ea316d21385b68909f,,,,,,,,,,,809.1669,810.1591,,,810.6594,810.9092,,67,67,,,,,,,,,,,,,,,,bars/034.png,bars/mask002.png,,,,,,,,,,,,4,2,,,,,,,3,5,4,4,,,,,,,,,,,810.1591,810.6593,810.9092,812.5593,space,1.6277,,812.5594,58,2,813.5591,813.5591,813.5669,,,,0,2,2,2,1,125,65,,,,,,,,
,,5ff4a242cbe069bc27d9278b,65af75882cf40634cd5d7505,2024-01-23_09h19.43.909,bars,2023.2.3,Win32,60.24096386,657b66ea316d21385b68909f,,,,,,,,,,,813.5671,814.5591,,,815.0593,815.309,,176,-4,,,,,,,,,,,,,,,,bars/040.png,bars/mask003.png,,,,,,,,,,,,2,2,,,,,,,1,3,2,3,,,,,,,,,,,814.5591,815.0592,815.309,819.4924,space,4.1689,,819.4924,36,9,820.4922,820.4922,820.4994,,,,0,3,3,3,1,140,5,,,,,,,,
,,5ff4a242cbe069bc27d9278b,65af75882cf40634cd5d7505,2024-01-23_09h19.43.909,bars,2023.2.3,Win32,60.24096386,657b66ea316d21385b68909f,,,,,,,,,,,820.4995,821.4921,,,821.9922,822.242,,78,78,,,,,,,,,,,,,,,,bars/029.png,bars/mask002.png,,,,,,,,,,,,1,1,,,,,,,3,5,2,6,,,,,,,,,,,821.4922,821.9922,822.242,824.2087,space,1.9421,,824.2087,12,33,825.2087,825.2087,825.2118,,,,0,4,4,4,1,90,45,,,,,,,,
,,5ff4a242cbe069bc27d9278b,65af75882cf40634cd5d7505,2024-01-23_09h19.43.909,bars,2023.2.3,Win32,60.24096386,657b66ea316d21385b68909f,,,,,,,,,,,825.2123,826.2086,,,826.7086,826.9586,,100,100,,,,,,,,,,,,,,,,bars/030.png,bars/mask005.png,,,,,,,,,,,,0,2,,,,,,,1,3,3,2,,,,,,,,,,,826.2086,826.7086,826.9586,827.5969,space,0.6174,,827.597,40,35,828.5919,828.5919,828.5933,,,,0,5,5,5,1,140,65,,,,,,,,
,,5ff4a242cbe069bc27d9278b,65af75882cf40634cd5d7505,2024-01-23_09h19.43.909,bars,2023.2.3,Win32,60.24096386,657b66ea316d21385b68909f,,,,,,,,,,,828.5935,829.5933,,,830.0918,830.3418,,37,37,,,,,,,,,,,,,,,,bars/010.png,bars/mask008.png,,,,,,,,,,,,0,2,,,,,,,3,1,2,1,,,,,,,,,,,829.5933,830.0917,830.3418,833.1417,space,2.7931,,833.1417,52,18,834.1416,834.1416,834.149,,,,0,6,6,6,1,165,55,,,,,,,,
,,5ff4a242cbe069bc27d9278b,65af75882cf40634cd5d7505,2024-01-23_09h19.43.909,bars,2023.2.3,Win32,60.24096386,657b66ea316d21385b68909f,,,,,,,,,,,834.1491,835.1412,,,835.6414,835.8914,,75,75,,,,,,,,,,,,,,,,bars/022.png,bars/mask007.png,,,,,,,,,,,,2,1,,,,,,,5,0,6,0,,,,,,,,,,,835.1412,835.6414,835.8914,837.9654,space,2.0655,,837.9654,20,55,838.9579,838.958,838.9599,,,,0,7,7,7,1,95,20,,,,,,,,
,,5ff4a242cbe069bc27d9278b,65af75882cf40634cd5d7505,2024-01-23_09h19.43.909,bars,2023.2.3,Win32,60.24096386,657b66ea316d21385b68909f,,,,,,,,,,,838.9603,839.9579,,,840.4655,840.7079,,25,205,,,,,,,,,,,,,,,,bars/035.png,bars/mask001.png,,,,,,,,,,,,0,1,,,,,,,7,0,7,0,,,,,,,,,,,839.9579,840.4654,840.7079,843.0913,space,2.3522,,843.0913,30,35,844.0911,844.0911,844.0991,,,,0,8,8,8,1,175,60,,,,,,,,
,,5ff4a242cbe069bc27d9278b,65af75882cf40634cd5d7505,2024-01-23_09h19.43.909,bars,2023.2.3,Win32,60.24096386,657b66ea316d21385b68909f,,,,,,,,,,,844.0992,845.091,,,845.5911,845.8451,,160,-20,,,,,,,,,,,,,,,,bars/005.png,bars/mask004.png,,,,,,,,,,,,0,2,,,,,,,9,0,9,1,,,,,,,,,,,845.091,845.5911,845.8451,848.2579,space,2.397,,848.258,30,20,849.2575,849.2576,849.2598,,,,0,9,9,9,1,10,140,,,,,,,,
,,5ff4a242cbe069bc27d9278b,65af75882cf40634cd5d7505,2024-01-23_09h19.43.909,bars,2023.2.3,Win32,60.24096386,657b66ea316d21385b68909f,,,,,,,,,,,849.2602,850.2574,,,850.7575,851.0074,,103,103,,,,,,,,,,,,,,,,bars/002.png,bars/mask001.png,,,,,,,,,,,,0,2,,,,,,,10,2,9,1,,,,,,,,,,,850.2574,850.7575,851.0074,852.829,space,1.8169,,852.8291,27,18,853.8283,853.8284,853.8346,,,,0,10,10,10,1,130,85,,,,,,,,
,,5ff4a242cbe069bc27d9278b,65af75882cf40634cd5d7505,2024-01-23_09h19.43.909,bars,2023.2.3,Win32,60.24096386,657b66ea316d21385b68909f,,,,,,,,,,,853.8347,854.824,,,855.3241,855.574,,67,67,,,,,,,,,,,,,,,,bars/047.png,bars/mask002.png,,,,,,,,,,,,4,2,,,,,,,8,4,8,4,,,,,,,,,,,854.824,855.3241,855.5741,858.1403,space,2.538,,858.1403,52,3,859.1404,859.1404,859.1474,,,,0,11,11,11,1,15,70,,,,,,,,
,,5ff4a242cbe069bc27d9278b,65af75882cf40634cd5d7505,2024-01-23_09h19.43.909,bars,2023.2.3,Win32,60.24096386,657b66ea316d21385b68909f,,,,,,,,,,,859.1476,860.1405,,,860.6405,860.8904,,23,203,,,,,,,,,,,,,,,,bars/003.png,bars/mask006.png,,,,,,,,,,,,6,1,,,,,,,6,6,6,7,,,,,,,,,,,860.1405,860.6404,860.8904,862.757,space,1.8423,,862.757,2,63,863.7611,863.7611,863.7678,,,,0,12,12,12,1,25,140,,,,,,,,
,,5ff4a242cbe069bc27d9278b,65af75882cf40634cd5d7505,2024-01-23_09h19.43.909,bars,2023.2.3,Win32,60.24096386,657b66ea316d21385b68909f,,,,,,,,,,,863.7679,864.7571,,,865.2569,865.5067,,102,102,,,,,,,,,,,,,,,,bars/007.png,bars/mask005.png,,,,,,,,,,,,0,2,,,,,,,8,8,8,9,,,,,,,,,,,864.7571,865.2569,865.5067,866.2403,space,0.7004,,866.2403,73,47,867.24,867.24,867.2418,,,,0,13,13,13,1,175,55,,,,,,,,
,,5ff4a242cbe069bc27d9278b,65af75882cf40634cd5d7505,2024-01-23_09h19.43.909,bars,2023.2.3,Win32,60.24096386,657b66ea316d21385b68909f,,,,,,,,,,,867.242,868.2401,,,868.7403,868.99,,138,138,,,,,,,,,,,,,,,,bars/045.png,bars/mask005.png,,,,,,,,,,,,0,1,,,,,,,10,6,9,6,,,,,,,,,,,868.2402,868.7402,868.99,870.5066,space,1.4904,,870.5066,38,52,871.5066,871.5066,871.508,,,,0,14,14,14,1,100,10,,,,,,,,
,,5ff4a242cbe069bc27d9278b,65af75882cf40634cd5d7505,2024-01-23_09h19.43.909,bars,2023.2.3,Win32,60.24096386,657b66ea316d21385b68909f,,,,,,,,,,,871.5082,872.5128,,,873.0064,873.2566,,69,-111,,,,,,,,,,,,,,,,bars/027.png,bars/mask002.png,,,,,,,,,,,,1,2,,,,,,,10,4,10,3,,,,,,,,,,,872.5129,873.0064,873.2566,877.7614,space,4.4842,,877.7614,41,19,878.7597,878.7598,878.7667,,,,0,15,15,15,1,110,50,,,,,,,,
,,5ff4a242cbe069bc27d9278b,65af75882cf40634cd5d7505,2024-01-23_09h19.43.909,bars,2023.2.3,Win32,60.24096386,657b66ea316d21385b68909f,,,,,,,,,,,878.7669,879.7561,,,880.2564,880.5062,,79,79,,,,,,,,,,,,,,,,bars/047.png,bars/mask000.png,,,,,,,,,,,,4,2,,,,,,,10,6,10,5,,,,,,,,,,,879.7561,880.2563,880.5062,882.3281,space,1.8015,,882.3281,64,9,883.3227,883.3228,883.3232,,,,0,16,16,16,1,15,70,,,,,,,,
,,5ff4a242cbe069bc27d9278b,65af75882cf40634cd5d7505,2024-01-23_09h19.43.909,bars,2023.2.3,Win32,60.24096386,657b66ea316d21385b68909f,,,,,,,,,,,883.3235,884.3226,,,884.8226,885.0725,,70,70,,,,,,,,,,,,,,,,bars/010.png,bars/mask002.png,,,,,,,,,,,,3,2,,,,,,,10,4,10,5,,,,,,,,,,,884.3227,884.8226,885.0725,887.856,space,2.7593,,887.8561,85,15,888.8559,888.8559,888.8643,,,,0,17,17,17,1,165,55,,,,,,,,
,,5ff4a242cbe069bc27d9278b,65af75882cf40634cd5d7505,2024-01-23_09h19.43.909,bars,2023.2.3,Win32,60.24096386,657b66ea316d21385b68909f,,,,,,,,,,,888.8645,889.8557,,,890.3556,890.6057,,63,63,,,,,,,,,,,,,,,,bars/013.png,bars/mask004.png,,,,,,,,,,,,6,1,,,,,,,10,6,10,7,,,,,,,,,,,889.8557,890.3556,890.6058,893.289,space,2.6717,,893.289,12,53,894.2889,894.2889,894.2968,,,,0,18,18,18,1,75,10,,,,,,,,
,,5ff4a242cbe069bc27d9278b,65af75882cf40634cd5d7505,2024-01-23_09h19.43.909,bars,2023.2.3,Win32,60.24096386,657b66ea316d21385b68909f,,,,,,,,,,,894.2969,895.2888,,,895.7888,896.039,,103,103,,,,,,,,,,,,,,,,bars/005.png,bars/mask000.png,,,,,,,,,,,,0,2,,,,,,,10,8,10,9,,,,,,,,,,,895.2889,895.7888,896.039,897.7223,space,1.6519,,897.7223,87,37,898.7219,898.7219,898.7233,,,,0,19,19,19,1,10,140,,,,,,,,
,,5ff4a242cbe069bc27d9278b,65af75882cf40634cd5d7505,2024-01-23_09h19.43.909,bars,2023.2.3,Win32,60.24096386,657b66ea316d21385b68909f,,,,,,,,,,,898.7234,899.7254,,,900.2219,900.4628,,98,98,,,,,,,,,,,,,,,,bars/006.png,bars/mask004.png,,,,,,,,,,,,8,2,,,,,,,8,10,6,9,,,,,,,,,,,899.7254,900.2218,900.4628,901.8052,space,1.3129,,901.8052,63,2,902.8051,902.8051,902.8058,,,,0,20,20,20,1,35,100,,,,,,,,
,,5ff4a242cbe069bc27d9278b,65af75882cf40634cd5d7505,2024-01-23_09h19.43.909,bars,2023.2.3,Win32,60.24096386,657b66ea316d21385b68909f,,,,,,,,,,,902.8059,903.8053,,,904.3081,904.5551,,12,12,,,,,,,,,,,,,,,,bars/006.png,bars/mask003.png,,,,,,,,,,,,1,1,,,,,,,6,10,6,9,,,,,,,,,,,903.8054,904.3081,904.5552,919.8541,space,15.2793,,919.8541,23,88,920.8543,920.8543,920.861,,,,0,21,21,21,1,35,100,,,,,,,,
,,5ff4a242cbe069bc27d9278b,65af75882cf40634cd5d7505,2024-01-23_09h19.43.909,bars,2023.2.3,Win32,60.24096386,657b66ea316d21385b68909f,,,,,,,,,,,920.8612,921.8541,,,922.3541,922.6041,,67,67,,,,,,,,,,,,,,,,bars/038.png,bars/mask005.png,,,,,,,,,,,,8,2,,,,,,,4,8,3,9,,,,,,,,,,,921.8541,922.3541,922.6041,942.2031,space,19.5874,,942.2031,82,3,943.2031,943.2031,943.2042,,,,0,22,22,22,1,165,70,,,,,,,,
,,5ff4a242cbe069bc27d9278b,65af75882cf40634cd5d7505,2024-01-23_09h19.43.909,bars,2023.2.3,Win32,60.24096386,657b66ea316d21385b68909f,,,,,,,,,,,943.2043,944.2068,,,944.703,944.9532,,106,106,,,,,,,,,,,,,,,,bars/029.png,bars/mask000.png,,,,,,,,,,,,2,1,,,,,,,6,10,5,10,,,,,,,,,,,944.2068,944.703,944.9532,946.7196,space,1.7591,,946.7196,16,61,947.7194,947.7194,947.7256,,,,0,23,23,23,1,90,45,,,,,,,,
,,5ff4a242cbe069bc27d9278b,65af75882cf40634cd5d7505,2024-01-23_09h19.43.909,bars,2023.2.3,Win32,60.24096386,657b66ea316d21385b68909f,,,,,,,,,,,947.7258,948.7195,,,949.2197,949.4696,,50,50,,,,,,,,,,,,,,,,bars/012.png,bars/mask009.png,,,,,,,,,,,,0,2,,,,,,,8,10,8,10,,,,,,,,,,,948.7195,949.2197,949.4696,951.3027,space,1.8184,,951.3027,40,35,952.3029,952.3029,952.3095,,,,0,24,24,24,1,90,15,,,,,,,,
,,5ff4a242cbe069bc27d9278b,65af75882cf40634cd5d7505,2024-01-23_09h19.43.909,bars,2023.2.3,Win32,60.24096386,657b66ea316d21385b68909f,,,,,,,,,,,952.3096,953.3029,,,953.8028,954.0527,,103,103,,,,,,,,,,,,,,,,bars/018.png,bars/mask009.png,,,,,,,,,,,,4,2,,,,,,,6,8,7,7,,,,,,,,,,,953.3029,953.8028,954.0527,954.7694,space,0.7008,,954.7694,47,13,955.7692,955.7693,955.7697,,,,0,25,25,25,1,150,90,,,,,,,,
,,5ff4a242cbe069bc27d9278b,65af75882cf40634cd5d7505,2024-01-23_09h19.43.909,bars,2023.2.3,Win32,60.24096386,657b66ea316d21385b68909f,,,,,,,,,,,955.77,956.7693,,,957.2576,957.5028,,121,121,,,,,,,,,,,,,,,,bars/013.png,bars/mask007.png,,,,,,,,,,,,0,1,,,,,,,4,6,4,6,,,,,,,,,,,956.7693,957.2576,957.5028,966.1853,space,8.6755,,966.1854,46,69,967.1906,967.1906,967.1972,,,,0,26,26,26,1,75,10,,,,,,,,
,,5ff4a242cbe069bc27d9278b,65af75882cf40634cd5d7505,2024-01-23_09h19.43.909,bars,2023.2.3,Win32,60.24096386,657b66ea316d21385b68909f,,,,,,,,,,,967.1973,968.1857,,,968.6857,968.9353,,152,-28,,,,,,,,,,,,,,,,bars/008.png,bars/mask000.png,,,,,,,,,,,,0,2,,,,,,,2,8,3,7,,,,,,,,,,,968.1857,968.6857,968.9353,977.802,space,8.8575,,977.802,42,28,978.8017,978.8017,978.8095,,,,0,27,27,27,1,110,0,,,,,,,,
,,5ff4a242cbe069bc27d9278b,65af75882cf40634cd5d7505,2024-01-23_09h19.43.909,bars,2023.2.3,Win32,60.24096386,657b66ea316d21385b68909f,,,,,,,,,,,978.8095,979.802,,,980.3015,980.5516,,108,108,,,,,,,,,,,,,,,,bars/034.png,bars/mask002.png,,,,,,,,,,,,0,1,,,,,,,0,10,0,10,,,,,,,,,,,979.802,980.3015,980.5516,984.2851,space,3.7171,,984.2851,17,43,985.2849,985.2849,985.2924,,,,0,28,28,28,1,125,65,,,,,,,,
,,5ff4a242cbe069bc27d9278b,65af75882cf40634cd5d7505,2024-01-23_09h19.43.909,bars,2023.2.3,Win32,60.24096386,657b66ea316d21385b68909f,,,,,,,,,,,985.2925,986.2848,,,986.7847,987.0349,,67,67,,,,,,,,,,,,,,,,bars/036.png,bars/mask009.png,,,,,,,,,,,,0,2,,,,,,,0,8,1,9,,,,,,,,,,,986.2848,986.7846,987.0349,989.7345,space,2.6848,,989.7345,78,47,990.7344,990.7344,990.7413,,,,0,29,29,29,1,145,20,,,,,,,,
,,5ff4a242cbe069bc27d9278b,65af75882cf40634cd5d7505,2024-01-23_09h19.43.909,bars,2023.2.3,Win32,60.24096386,657b66ea316d21385b68909f,,,,,,,,,,,990.7415,991.7343,,,992.2346,992.485,,89,89,,,,,,,,,,,,,,,,bars/017.png,bars/mask001.png,,,,,,,,,,,,0,2,,,,,,,0,6,0,5,,,,,,,,,,,991.7343,992.2346,992.4851,993.6841,space,1.1953,,993.6841,56,44,994.6843,994.6843,994.6849,,,,0,30,30,30,1,145,45,,,,,,,,
,,5ff4a242cbe069bc27d9278b,65af75882cf40634cd5d7505,2024-01-23_09h19.43.909,bars,2023.2.3,Win32,60.24096386,657b66ea316d21385b68909f,,,,,,,,,,,994.6851,995.6946,,,996.1843,996.434,,163,163,,,,,,,,,,,,,,,,bars/049.png,bars/mask006.png,,,,,,,,,,,,3,1,,,,,,,2,8,3,9,,,,,,,,,,,995.6946,996.1842,996.434,997.9843,space,1.5416,,997.9843,3,48,998.984,998.984,998.9906,,,,0,31,31,31,1,160,115,,,,,,,,
,,5ff4a242cbe069bc27d9278b,65af75882cf40634cd5d7505,2024-01-23_09h19.43.909,bars,2023.2.3,Win32,60.24096386,657b66ea316d21385b68909f,,,,,,,,,,,998.9907,999.9839,,,1000.4845,1000.7339,,153,-27,,,,,,,,,,,,,,,,bars/045.png,bars/mask009.png,,,,,,,,,,,,0,2,,,,,,,0,10,0,9,,,,,,,,,,,999.9839,1000.4845,1000.7339,1008.7248,space,7.9868,,1008.7248,53,37,1009.7175,1009.7176,1009.7246,,,,0,32,32,32,1,100,10,,,,,,,,
,,5ff4a242cbe069bc27d9278b,65af75882cf40634cd5d7505,2024-01-23_09h19.43.909,bars,2023.2.3,Win32,60.24096386,657b66ea316d21385b68909f,,,,,,,,,,,1009.7247,1010.7216,,,1011.2216,1011.4668,,55,55,,,,,,,,,,,,,,,,bars/014.png,bars/mask007.png,,,,,,,,,,,,0,1,,,,,,,2,10,3,10,,,,,,,,,,,1010.7217,1011.2216,1011.4668,1013.2835,space,1.8049,,1013.2835,25,55,1014.2834,1014.2834,1014.2906,,,,0,33,33,33,1,80,0,,,,,,,,
,,5ff4a242cbe069bc27d9278b,65af75882cf40634cd5d7505,2024-01-23_09h19.43.909,bars,2023.2.3,Win32,60.24096386,657b66ea316d21385b68909f,,,,,,,,,,,1014.2908,1015.2834,,,1015.7833,1016.0376,,154,-26,,,,,,,,,,,,,,,,bars/047.png,bars/mask009.png,,,,,,,,,,,,0,1,,,,,,,0,10,0,10,,,,,,,,,,,1015.2834,1015.7833,1016.0376,1018.7879,space,2.7473,,1018.7879,41,84,1019.7834,1019.7834,1019.7893,,,,0,34,34,34,1,15,70,,,,,,,,
,,5ff4a242cbe069bc27d9278b,65af75882cf40634cd5d7505,2024-01-23_09h19.43.909,bars,2023.2.3,Win32,60.24096386,657b66ea316d21385b68909f,,,,,,,,,,,1019.7894,1020.7831,,,1021.2714,1021.5166,,47,47,,,,,,,,,,,,,,,,bars/000.png,bars/mask004.png,,,,,,,,,,,,2,1,,,,,,,2,10,2,10,,,,,,,,,,,1020.7831,1021.2713,1021.5166,1031.0501,space,9.517,,1031.0501,7,82,1032.0495,1032.0495,1032.0561,,,,0,35,35,35,1,40,145,,,,,,,,
,,5ff4a242cbe069bc27d9278b,65af75882cf40634cd5d7505,2024-01-23_09h19.43.909,bars,2023.2.3,Win32,60.24096386,657b66ea316d21385b68909f,,,,,,,,,,,1032.0562,1033.0494,,,1033.5493,1033.7992,,142,142,,,,,,,,,,,,,,,,bars/022.png,bars/mask008.png,,,,,,,,,,,,0,1,,,,,,,0,10,0,10,,,,,,,,,,,1033.0494,1033.5493,1033.7992,1037.1991,space,3.3925,,1037.1991,47,58,1038.1992,1038.1992,1038.2048,,,,0,36,36,36,1,95,20,,,,,,,,
,,5ff4a242cbe069bc27d9278b,65af75882cf40634cd5d7505,2024-01-23_09h19.43.909,bars,2023.2.3,Win32,60.24096386,657b66ea316d21385b68909f,,,,,,,,,,,1038.2049,1039.199,,,1039.699,1039.9488,,73,73,,,,,,,,,,,,,,,,bars/036.png,bars/mask001.png,,,,,,,,,,,,0,2,,,,,,,0,10,1,10,,,,,,,,,,,1039.199,1039.6989,1039.9488,1041.199,space,1.2348,,1041.199,72,53,1042.199,1042.199,1042.2054,,,,0,37,37,37,1,145,20,,,,,,,,
,,5ff4a242cbe069bc27d9278b,65af75882cf40634cd5d7505,2024-01-23_09h19.43.909,bars,2023.2.3,Win32,60.24096386,657b66ea316d21385b68909f,,,,,,,,,,,1042.2054,1043.1987,,,1043.7038,1043.9488,,129,129,,,,,,,,,,,,,,,,bars/003.png,bars/mask000.png,,,,,,,,,,,,6,2,,,,,,,2,8,1,9,,,,,,,,,,,1043.1987,1043.7038,1043.9488,1045.4823,space,1.5222,,1045.4823,76,11,1046.4822,1046.4822,1046.488,,,,0,38,38,38,1,25,140,,,,,,,,
,,5ff4a242cbe069bc27d9278b,65af75882cf40634cd5d7505,2024-01-23_09h19.43.909,bars,2023.2.3,Win32,60.24096386,657b66ea316d21385b68909f,,,,,,,,,,,1046.4881,1047.482,,,1047.9821,1048.2318,,118,118,,,,,,,,,,,,,,,,bars/030.png,bars/mask006.png,,,,,,,,,,,,1,1,,,,,,,4,10,4,10,,,,,,,,,,,1047.482,1047.9821,1048.2318,1049.8318,space,1.5916,,1049.8318,22,53,1050.8318,1050.8318,1050.8394,,,,0,39,39,39,1,140,65,,,,,,,,
,,5ff4a242cbe069bc27d9278b,65af75882cf40634cd5d7505,2024-01-23_09h19.43.909,bars,2023.2.3,Win32,60.24096386,657b66ea316d21385b68909f,,,,,,,,,,,1050.8396,1051.8318,,,1052.3318,1052.5817,,148,-32,,,,,,,,,,,,,,,,bars/042.png,bars/mask008.png,,,,,,,,,,,,5,1,,,,,,,6,10,6,10,,,,,,,,,,,1051.8318,1052.3317,1052.5817,1054.6818,space,2.0846,,1054.6818,3,73,1055.6816,1055.6816,1055.6821,,,,0,40,40,40,1,145,75,,,,,,,,
,,5ff4a242cbe069bc27d9278b,65af75882cf40634cd5d7505,2024-01-23_09h19.43.909,bars,2023.2.3,Win32,60.24096386,657b66ea316d21385b68909f,,,,,,,,,,,1055.6821,1056.6815,,,1057.1816,1057.4321,,139,-41,,,,,,,,,,,,,,,,bars/019.png,bars/mask004.png,,,,,,,,,,,,0,2,,,,,,,8,10,9,10,,,,,,,,,,,1056.6815,1057.1816,1057.4321,1060.2982,space,2.8502,,1060.2983,86,34,1061.2981,1061.2981,1061.3047,,,,0,41,41,41,1,45,105,,,,,,,,
,,5ff4a242cbe069bc27d9278b,65af75882cf40634cd5d7505,2024-01-23_09h19.43.909,bars,2023.2.3,Win32,60.24096386,657b66ea316d21385b68909f,,,,,,,,,,,1061.3048,1062.2982,,,1062.7989,1063.0479,,80,80,,,,,,,,,,,,,,,,bars/031.png,bars/mask008.png,,,,,,,,,,,,0,1,,,,,,,6,10,4,10,,,,,,,,,,,1062.2982,1062.7988,1063.0479,1064.7479,space,1.6955,,1064.7479,40,45,1065.7479,1065.7479,1065.7491,,,,0,42,42,42,1,120,35,,,,,,,,
,,5ff4a242cbe069bc27d9278b,65af75882cf40634cd5d7505,2024-01-23_09h19.43.909,bars,2023.2.3,Win32,60.24096386,657b66ea316d21385b68909f,,,,,,,,,,,1065.7492,1066.7479,,,1067.2478,1067.498,,123,123,,,,,,,,,,,,,,,,bars/028.png,bars/mask004.png,,,,,,,,,,,,7,2,,,,,,,8,8,6,8,,,,,,,,,,,1066.7479,1067.2478,1067.498,1069.6144,space,2.1028,,1069.6144,78,3,1070.6143,1070.6143,1070.6208,,,,0,43,43,43,1,45,120,,,,,,,,
,,5ff4a242cbe069bc27d9278b,65af75882cf40634cd5d7505,2024-01-23_09h19.43.909,bars,2023.2.3,Win32,60.24096386,657b66ea316d21385b68909f,,,,,,,,,,,1070.6209,1071.6143,,,1072.1142,1072.3647,,115,115,,,,,,,,,,,,,,,,bars/044.png,bars/mask006.png,,,,,,,,,,,,0,2,,,,,,,6,10,5,9,,,,,,,,,,,1071.6143,1072.1142,1072.3647,1085.2856,space,12.9002,,1085.2857,40,40,1086.2803,1086.2803,1086.2864,,,,0,44,44,44,1,75,155,,,,,,,,
,,5ff4a242cbe069bc27d9278b,65af75882cf40634cd5d7505,2024-01-23_09h19.43.909,bars,2023.2.3,Win32,60.24096386,657b66ea316d21385b68909f,,,,,,,,,,,1086.2866,1087.2803,,,1087.7803,1088.0302,,65,65,,,,,,,,,,,,,,,,bars/014.png,bars/mask007.png,,,,,,,,,,,,2,1,,,,,,,4,8,3,8,,,,,,,,,,,1087.2803,1087.7803,1088.0302,1090.119,space,2.0848,,1090.119,15,65,1091.1133,1091.1134,1091.1196,,,,0,45,45,45,1,80,0,,,,,,,,
,,5ff4a242cbe069bc27d9278b,65af75882cf40634cd5d7505,2024-01-23_09h19.43.909,bars,2023.2.3,Win32,60.24096386,657b66ea316d21385b68909f,,,,,,,,,,,1091.1198,1092.1134,,,1092.6133,1092.8633,,127,-53,,,,,,,,,,,,,,,,bars/048.png,bars/mask005.png,,,,,,,,,,,,0,2,,,,,,,2,6,3,7,,,,,,,,,,,1092.1134,1092.6133,1092.8633,1096.2467,space,3.3503,,1096.2468,77,48,1097.2467,1097.2467,1097.2533,,,,0,46,46,46,1,50,175,,,,,,,,
,,5ff4a242cbe069bc27d9278b,65af75882cf40634cd5d7505,2024-01-23_09h19.43.909,bars,2023.2.3,Win32,60.24096386,657b66ea316d21385b68909f,,,,,,,,,,,1097.2534,1098.2465,,,1098.7465,1098.9965,,57,57,,,,,,,,,,,,,,,,bars/039.png,bars/mask003.png,,,,,,,,,,,,0,2,,,,,,,4,4,4,4,,,,,,,,,,,1098.2465,1098.7465,1098.9965,1100.6296,space,1.6183,,1100.6297,62,48,1101.6296,1101.6296,1101.6301,,,,0,47,47,47,1,175,105,,,,,,,,
,,5ff4a242cbe069bc27d9278b,65af75882cf40634cd5d7505,2024-01-23_09h19.43.909,bars,2023.2.3,Win32,60.24096386,657b66ea316d21385b68909f,,,,,,,,,,,1101.6302,1102.6295,,,1103.1294,1103.3796,,123,123,,,,,,,,,,,,,,,,bars/023.png,bars/mask005.png,,,,,,,,,,,,2,2,,,,,,,2,2,3,3,,,,,,,,,,,1102.6295,1103.1294,1103.3797,1107.4628,space,4.0763,,1107.4628,77,8,1108.4627,1108.4627,1108.4687,,,,0,48,48,48,1,20,115,,,,,,,,
,,5ff4a242cbe069bc27d9278b,65af75882cf40634cd5d7505,2024-01-23_09h19.43.909,bars,2023.2.3,Win32,60.24096386,657b66ea316d21385b68909f,,,,,,,,,,,1108.4688,1109.4625,,,1109.9506,1110.1959,,73,73,,,,,,,,,,,,,,,,bars/012.png,bars/mask003.png,,,,,,,,,,,,1,1,,,,,,,4,0,3,0,,,,,,,,,,,1109.4625,1109.9506,1110.1959,1111.8793,space,1.6759,,1111.8794,17,58,1112.8791,1112.8791,1112.8853,,,,0,49,49,49,1,90,15,,,,,,,,
,,5ff4a242cbe069bc27d9278b,65af75882cf40634cd5d7505,2024-01-23_09h19.43.909,bars,2023.2.3,Win32,60.24096386,657b66ea316d21385b68909f,,,,,,,,,,,,,,,,,,,,,,,,,,,,,,,,,,,,,,,,,,,,,,,,,,,,,,,,,,,,,,,,,,,,,,,,,,,,,,,,,,,,,,,,,,,,,1112.8854,1172.8763,0,2,2,4,1,sequence_tables/blk007.csv
,,5ff4a242cbe069bc27d9278b,65af75882cf40634cd5d7505,2024-01-23_09h19.43.909,bars,2023.2.3,Win32,60.24096386,657b66ea316d21385b68909f,,,,,,,,,,,1180.4017,1181.3927,,,1181.8846,1182.1258,,36,216,,,,,,,,,,,,,,,,bars/007.png,bars/mask002.png,,,,,,,,,,,,3,2,,,,,,,2,9,1,9,,,,,,1172.8821,1180.3928,space,7.4899,,1181.3927,1181.8846,1182.1258,1185.109,space,2.9726,,1185.1091,41,19,1186.1135,1186.1135,1186.12,,,,0,0,0,0,1,175,55,,,,,,,,
,,5ff4a242cbe069bc27d9278b,65af75882cf40634cd5d7505,2024-01-23_09h19.43.909,bars,2023.2.3,Win32,60.24096386,657b66ea316d21385b68909f,,,,,,,,,,,1186.12,1187.1089,,,1187.6091,1187.8589,,139,-41,,,,,,,,,,,,,,,,bars/043.png,bars/mask004.png,,,,,,,,,,,,4,2,,,,,,,4,7,7,6,,,,,,,,,,,1187.1089,1187.6091,1187.8589,1190.9757,space,3.0838,,1190.9757,71,9,1191.9799,1191.98,1191.9856,,,,0,1,1,1,1,30,130,,,,,,,,
,,5ff4a242cbe069bc27d9278b,65af75882cf40634cd5d7505,2024-01-23_09h19.43.909,bars,2023.2.3,Win32,60.24096386,657b66ea316d21385b68909f,,,,,,,,,,,1191.9857,1192.9759,,,1193.4754,1193.7254,,33,213,,,,,,,,,,,,,,,,bars/032.png,bars/mask002.png,,,,,,,,,,,,5,2,,,,,,,6,9,6,8,,,,,,,,,,,1192.9759,1193.4754,1193.7254,1196.9429,space,3.2098,,1196.943,88,13,1197.9419,1197.9419,1197.949,,,,0,2,2,2,1,125,20,,,,,,,,
,,5ff4a242cbe069bc27d9278b,65af75882cf40634cd5d7505,2024-01-23_09h19.43.909,bars,2023.2.3,Win32,60.24096386,657b66ea316d21385b68909f,,,,,,,,,,,1197.9491,1198.942,,,1199.4421,1199.6916,,34,34,,,,,,,,,,,,,,,,bars/039.png,bars/mask004.png,,,,,,,,,,,,0,1,,,,,,,8,7,6,8,,,,,,,,,,,1198.942,1199.4421,1199.6917,1201.13,space,1.4342,,1201.13,39,71,1202.125,1202.1251,1202.1262,,,,0,3,3,3,1,175,105,,,,,,,,
,,5ff4a242cbe069bc27d9278b,65af75882cf40634cd5d7505,2024-01-23_09h19.43.909,bars,2023.2.3,Win32,60.24096386,657b66ea316d21385b68909f,,,,,,,,,,,1202.1263,1203.125,,,1203.6255,1203.8749,,123,123,,,,,,,,,,,,,,,,bars/004.png,bars/mask000.png,,,,,,,,,,,,8,2,,,,,,,6,9,5,9,,,,,,,,,,,1203.125,1203.6255,1203.8749,1207.0249,space,3.1165,,1207.025,82,2,1208.0135,1208.0135,1208.0201,,,,0,4,4,4,1,25,125,,,,,,,,
,,5ff4a242cbe069bc27d9278b,65af75882cf40634cd5d7505,2024-01-23_09h19.43.909,bars,2023.2.3,Win32,60.24096386,657b66ea316d21385b68909f,,,,,,,,,,,1208.0203,1209.0081,,,1209.5082,1209.7581,,79,79,,,,,,,,,,,,,,,,bars/025.png,bars/mask004.png,,,,,,,,,,,,1,1,,,,,,,8,7,8,8,,,,,,,,,,,1209.0081,1209.5082,1209.7581,1213.8747,space,4.0992,,1213.8747,26,39,1214.8743,1214.8743,1214.8806,,,,0,5,5,5,1,105,40,,,,,,,,
,,5ff4a242cbe069bc27d9278b,65af75882cf40634cd5d7505,2024-01-23_09h19.43.909,bars,2023.2.3,Win32,60.24096386,657b66ea316d21385b68909f,,,,,,,,,,,1214.8807,1215.8789,,,1216.3744,1216.6241,,122,122,,,,,,,,,,,,,,,,bars/019.png,bars/mask000.png,,,,,,,,,,,,3,2,,,,,,,6,5,6,7,,,,,,,,,,,1215.8789,1216.3744,1216.6241,1220.2408,space,3.6,,1220.2408,77,17,1221.2409,1221.2409,1221.2471,,,,0,6,6,6,1,45,105,,,,,,,,
,,5ff4a242cbe069bc27d9278b,65af75882cf40634cd5d7505,2024-01-23_09h19.43.909,bars,2023.2.3,Win32,60.24096386,657b66ea316d21385b68909f,,,,,,,,,,,1221.2472,1222.2408,,,1222.7408,1222.9909,,30,30,,,,,,,,,,,,,,,,bars/043.png,bars/mask007.png,,,,,,,,,,,,2,1,,,,,,,4,7,2,6,,,,,,,,,,,1222.2408,1222.7408,1222.9909,1225.3738,space,2.3764,,1225.3738,0,80,1226.3742,1226.3742,1226.3803,,,,0,7,7,7,1,30,130,,,,,,,,
,,5ff4a242cbe069bc27d9278b,65af75882cf40634cd5d7505,2024-01-23_09h19.43.909,bars,2023.2.3,Win32,60.24096386,657b66ea316d21385b68909f,,,,,,,,,,,1226.3803,1227.3739,,,1227.8739,1228.1238,,104,104,,,,,,,,,,,,,,,,bars/038.png,bars/mask008.png,,,,,,,,,,,,0,2,,,,,,,2,9,2,8,,,,,,,,,,,1227.3739,1227.8738,1228.1238,1229.2572,space,1.1168,,1229.2573,61,34,1230.2572,1230.2572,1230.2584,,,,0,8,8,8,1,165,70,,,,,,,,
,,5ff4a242cbe069bc27d9278b,65af75882cf40634cd5d7505,2024-01-23_09h19.43.909,bars,2023.2.3,Win32,60.24096386,657b66ea316d21385b68909f,,,,,,,,,,,1230.2585,1231.2572,,,1231.7617,1232.0076,,103,103,,,,,,,,,,,,,,,,bars/028.png,bars/mask009.png,,,,,,,,,,,,4,2,,,,,,,0,10,1,10,,,,,,,,,,,1231.2572,1231.7617,1232.0077,1234.4401,space,2.4077,,1234.4402,58,17,1235.4404,1235.4405,1235.4466,,,,0,9,9,9,1,45,120,,,,,,,,
,,5ff4a242cbe069bc27d9278b,65af75882cf40634cd5d7505,2024-01-23_09h19.43.909,bars,2023.2.3,Win32,60.24096386,657b66ea316d21385b68909f,,,,,,,,,,,1235.4467,1236.4402,,,1236.9281,1237.1734,,145,145,,,,,,,,,,,,,,,,bars/009.png,bars/mask001.png,,,,,,,,,,,,0,2,,,,,,,2,8,3,7,,,,,,,,,,,1236.4402,1236.9281,1237.1735,1237.9736,space,0.7855,,1237.9736,50,40,1238.9734,1238.9734,1238.9739,,,,0,10,10,10,1,15,105,,,,,,,,
,,5ff4a242cbe069bc27d9278b,65af75882cf40634cd5d7505,2024-01-23_09h19.43.909,bars,2023.2.3,Win32,60.24096386,657b66ea316d21385b68909f,,,,,,,,,,,1238.9741,1239.9734,,,1240.4734,1240.7234,,101,101,,,,,,,,,,,,,,,,bars/004.png,bars/mask006.png,,,,,,,,,,,,2,2,,,,,,,0,10,0,10,,,,,,,,,,,1239.9734,1240.4733,1240.7234,1243.4735,space,2.7392,,1243.4735,76,24,1244.4731,1244.4732,1244.4791,,,,0,11,11,11,1,25,125,,,,,,,,
,,5ff4a242cbe069bc27d9278b,65af75882cf40634cd5d7505,2024-01-23_09h19.43.909,bars,2023.2.3,Win32,60.24096386,657b66ea316d21385b68909f,,,,,,,,,,,1244.4792,1245.4735,,,1245.9732,1246.223,,63,243,,,,,,,,,,,,,,,,bars/003.png,bars/mask004.png,,,,,,,,,,,,0,1,,,,,,,2,8,2,6,,,,,,,,,,,1245.4735,1245.9731,1246.223,1253.9229,space,7.6961,,1253.9229,38,77,1254.9227,1254.9227,1254.9292,,,,0,12,12,12,1,25,140,,,,,,,,
,,5ff4a242cbe069bc27d9278b,65af75882cf40634cd5d7505,2024-01-23_09h19.43.909,bars,2023.2.3,Win32,60.24096386,657b66ea316d21385b68909f,,,,,,,,,,,1254.9294,1255.9227,,,1256.4227,1256.6725,,61,61,,,,,,,,,,,,,,,,bars/016.png,bars/mask000.png,,,,,,,,,,,,2,1,,,,,,,4,10,5,9,,,,,,,,,,,1255.9227,1256.4227,1256.6725,1259.0106,space,2.3299,,1259.0106,21,76,1260.0059,1260.006,1260.0142,,,,0,13,13,13,1,40,165,,,,,,,,
,,5ff4a242cbe069bc27d9278b,65af75882cf40634cd5d7505,2024-01-23_09h19.43.909,bars,2023.2.3,Win32,60.24096386,657b66ea316d21385b68909f,,,,,,,,,,,1260.0144,1261.0105,,,1261.5056,1261.7559,,115,115,,,,,,,,,,,,,,,,bars/041.png,bars/mask001.png,,,,,,,,,,,,0,2,,,,,,,2,10,2,10,,,,,,,,,,,1261.0105,1261.5056,1261.7559,1263.7726,space,2.0032,,1263.7726,85,30,1264.7723,1264.7724,1264.7736,,,,0,14,14,14,1,20,85,,,,,,,,
,,5ff4a242cbe069bc27d9278b,65af75882cf40634cd5d7505,2024-01-23_09h19.43.909,bars,2023.2.3,Win32,60.24096386,657b66ea316d21385b68909f,,,,,,,,,,,1264.7737,1265.7762,,,1266.2723,1266.5221,,129,129,,,,,,,,,,,,,,,,bars/030.png,bars/mask007.png,,,,,,,,,,,,0,1,,,,,,,0,10,0,10,,,,,,,,,,,1265.7762,1266.2723,1266.5221,1269.4102,space,2.8813,,1269.4102,11,64,1270.4054,1270.4055,1270.4124,,,,0,15,15,15,1,140,65,,,,,,,,
,,5ff4a242cbe069bc27d9278b,65af75882cf40634cd5d7505,2024-01-23_09h19.43.909,bars,2023.2.3,Win32,60.24096386,657b66ea316d21385b68909f,,,,,,,,,,,1270.4125,1271.4054,,,1271.9053,1272.1554,,82,82,,,,,,,,,,,,,,,,bars/004.png,bars/mask006.png,,,,,,,,,,,,0,2,,,,,,,2,10,2,10,,,,,,,,,,,1271.4054,1271.9053,1272.1554,1273.7053,space,1.5338,,1273.7053,57,43,1274.709,1274.709,1274.71,,,,0,16,16,16,1,25,125,,,,,,,,
,,5ff4a242cbe069bc27d9278b,65af75882cf40634cd5d7505,2024-01-23_09h19.43.909,bars,2023.2.3,Win32,60.24096386,657b66ea316d21385b68909f,,,,,,,,,,,1274.7102,1275.7051,,,1276.2052,1276.455,,137,137,,,,,,,,,,,,,,,,bars/030.png,bars/mask004.png,,,,,,,,,,,,0,1,,,,,,,0,10,0,8,,,,,,,,,,,1275.7051,1276.2052,1276.455,1277.372,space,0.9037,,1277.3721,3,72,1278.3718,1278.3718,1278.373,,,,0,17,17,17,1,140,65,,,,,,,,
,,5ff4a242cbe069bc27d9278b,65af75882cf40634cd5d7505,2024-01-23_09h19.43.909,bars,2023.2.3,Win32,60.24096386,657b66ea316d21385b68909f,,,,,,,,,,,1278.3731,1279.3724,,,1279.8716,1280.1217,,60,60,,,,,,,,,,,,,,,,bars/013.png,bars/mask008.png,,,,,,,,,,,,1,1,,,,,,,2,10,2,10,,,,,,,,,,,1279.3724,1279.8716,1280.1217,1281.9382,space,1.8054,,1281.9382,15,50,1282.9387,1282.9387,1282.9393,,,,0,18,18,18,1,75,10,,,,,,,,
,,5ff4a242cbe069bc27d9278b,65af75882cf40634cd5d7505,2024-01-23_09h19.43.909,bars,2023.2.3,Win32,60.24096386,657b66ea316d21385b68909f,,,,,,,,,,,1282.9394,1283.9382,,,1284.4382,1284.688,,63,243,,,,,,,,,,,,,,,,bars/018.png,bars/mask001.png,,,,,,,,,,,,1,2,,,,,,,0,10,1,10,,,,,,,,,,,1283.9383,1284.4382,1284.688,1287.5713,space,2.8703,,1287.5713,87,27,1288.5714,1288.5714,1288.5783,,,,0,19,19,19,1,150,90,,,,,,,,
,,5ff4a242cbe069bc27d9278b,65af75882cf40634cd5d7505,2024-01-23_09h19.43.909,bars,2023.2.3,Win32,60.24096386,657b66ea316d21385b68909f,,,,,,,,,,,1288.5783,1289.5756,,,1290.0711,1290.3092,,58,58,,,,,,,,,,,,,,,,bars/045.png,bars/mask009.png,,,,,,,,,,,,0,1,,,,,,,2,10,1,8,,,,,,,,,,,1289.5756,1290.0711,1290.3093,1292.2709,space,1.9413,,1292.2709,42,48,1293.2711,1293.2711,1293.2775,,,,0,20,20,20,1,100,10,,,,,,,,
,,5ff4a242cbe069bc27d9278b,65af75882cf40634cd5d7505,2024-01-23_09h19.43.909,bars,2023.2.3,Win32,60.24096386,657b66ea316d21385b68909f,,,,,,,,,,,1293.2776,1294.2711,,,1294.7708,1295.021,,141,-39,,,,,,,,,,,,,,,,bars/043.png,bars/mask005.png,,,,,,,,,,,,5,2,,,,,,,4,8,3,8,,,,,,,,,,,1294.2711,1294.7708,1295.021,1297.8375,space,2.7924,,1297.8375,69,11,1298.8374,1298.8374,1298.8436,,,,0,21,21,21,1,30,130,,,,,,,,
,,5ff4a242cbe069bc27d9278b,65af75882cf40634cd5d7505,2024-01-23_09h19.43.909,bars,2023.2.3,Win32,60.24096386,657b66ea316d21385b68909f,,,,,,,,,,,1298.8437,1299.8374,,,1300.3373,1300.5875,,55,55,,,,,,,,,,,,,,,,bars/024.png,bars/mask003.png,,,,,,,,,,,,0,2,,,,,,,6,10,7,10,,,,,,,,,,,1299.8374,1300.3373,1300.5875,1303.1373,space,2.5394,,1303.1373,65,65,1304.1373,1304.1373,1304.1429,,,,0,22,22,22,1,120,170,,,,,,,,
,,5ff4a242cbe069bc27d9278b,65af75882cf40634cd5d7505,2024-01-23_09h19.43.909,bars,2023.2.3,Win32,60.24096386,657b66ea316d21385b68909f,,,,,,,,,,,1304.1429,1305.1371,,,1305.6372,1305.8873,,118,118,,,,,,,,,,,,,,,,bars/049.png,bars/mask003.png,,,,,,,,,,,,9,2,,,,,,,4,10,4,10,,,,,,,,,,,1305.1371,1305.6371,1305.8873,1308.6205,space,2.7191,,1308.6205,42,3,1309.6203,1309.6203,1309.6259,,,,0,23,23,23,1,160,115,,,,,,,,
,,5ff4a242cbe069bc27d9278b,65af75882cf40634cd5d7505,2024-01-23_09h19.43.909,bars,2023.2.3,Win32,60.24096386,657b66ea316d21385b68909f,,,,,,,,,,,1309.626,1310.6203,,,1311.1248,1311.3701,,116,116,,,,,,,,,,,,,,,,bars/046.png,bars/mask008.png,,,,,,,,,,,,0,2,,,,,,,6,8,5,9,,,,,,,,,,,1310.6203,1311.1248,1311.3701,1314.3867,space,3.0047,,1314.3868,39,31,1315.3868,1315.3868,1315.3927,,,,0,24,24,24,1,155,85,,,,,,,,
,,5ff4a242cbe069bc27d9278b,65af75882cf40634cd5d7505,2024-01-23_09h19.43.909,bars,2023.2.3,Win32,60.24096386,657b66ea316d21385b68909f,,,,,,,,,,,1315.3928,1316.3911,,,1316.8868,1317.1365,,91,91,,,,,,,,,,,,,,,,bars/021.png,bars/mask009.png,,,,,,,,,,,,2,2,,,,,,,4,6,4,7,,,,,,,,,,,1316.3911,1316.8868,1317.1365,1319.3743,space,2.2338,,1319.3743,64,21,1320.3698,1320.3698,1320.376,,,,0,25,25,25,1,155,70,,,,,,,,
,,5ff4a242cbe069bc27d9278b,65af75882cf40634cd5d7505,2024-01-23_09h19.43.909,bars,2023.2.3,Win32,60.24096386,657b66ea316d21385b68909f,,,,,,,,,,,1320.3761,1321.3698,,,1321.8745,1322.1198,,133,-47,,,,,,,,,,,,,,,,bars/034.png,bars/mask005.png,,,,,,,,,,,,1,1,,,,,,,2,8,1,8,,,,,,,,,,,1321.3698,1321.8745,1322.1198,1325.3698,space,3.2388,,1325.3698,8,68,1326.3696,1326.3696,1326.3766,,,,0,26,26,26,1,125,65,,,,,,,,
,,5ff4a242cbe069bc27d9278b,65af75882cf40634cd5d7505,2024-01-23_09h19.43.909,bars,2023.2.3,Win32,60.24096386,657b66ea316d21385b68909f,,,,,,,,,,,1326.3768,1327.3694,,,1327.8694,1328.1195,,179,179,,,,,,,,,,,,,,,,bars/012.png,bars/mask008.png,,,,,,,,,,,,4,2,,,,,,,4,10,5,9,,,,,,,,,,,1327.3695,1327.8694,1328.1195,1330.4027,space,2.2707,,1330.4027,89,16,1331.4072,1331.4072,1331.4136,,,,0,27,27,27,1,90,15,,,,,,,,
,,5ff4a242cbe069bc27d9278b,65af75882cf40634cd5d7505,2024-01-23_09h19.43.909,bars,2023.2.3,Win32,60.24096386,657b66ea316d21385b68909f,,,,,,,,,,,1331.4137,1332.4027,,,1332.8906,1333.1358,,3,183,,,,,,,,,,,,,,,,bars/015.png,bars/mask009.png,,,,,,,,,,,,2,2,,,,,,,2,10,2,9,,,,,,,,,,,1332.4027,1332.8905,1333.1358,1335.3526,space,2.2071,,1335.3527,73,23,1336.3526,1336.3526,1336.3585,,,,0,28,28,28,1,110,160,,,,,,,,
,,5ff4a242cbe069bc27d9278b,65af75882cf40634cd5d7505,2024-01-23_09h19.43.909,bars,2023.2.3,Win32,60.24096386,657b66ea316d21385b68909f,,,,,,,,,,,1336.3585,1337.3524,,,1337.8525,1338.1023,,105,105,,,,,,,,,,,,,,,,bars/015.png,bars/mask000.png,,,,,,,,,,,,0,1,,,,,,,0,8,0,8,,,,,,,,,,,1337.3524,1337.8525,1338.1024,1340.1523,space,2.0162,,1340.1523,5,55,1341.1522,1341.1522,1341.1531,,,,0,29,29,29,1,110,160,,,,,,,,
,,5ff4a242cbe069bc27d9278b,65af75882cf40634cd5d7505,2024-01-23_09h19.43.909,bars,2023.2.3,Win32,60.24096386,657b66ea316d21385b68909f,,,,,,,,,,,1341.1532,1342.1523,,,1342.6444,1342.8895,,72,72,,,,,,,,,,,,,,,,bars/035.png,bars/mask000.png,,,,,,,,,,,,5,2,,,,,,,2,10,2,9,,,,,,,,,,,1342.1523,1342.6444,1342.8895,1346.2021,space,3.3099,,1346.2021,77,12,1347.202,1347.202,1347.2087,,,,0,30,30,30,1,175,60,,,,,,,,
,,5ff4a242cbe069bc27d9278b,65af75882cf40634cd5d7505,2024-01-23_09h19.43.909,bars,2023.2.3,Win32,60.24096386,657b66ea316d21385b68909f,,,,,,,,,,,1347.2088,1348.202,,,1348.69,1348.9353,,78,78,,,,,,,,,,,,,,,,bars/019.png,bars/mask008.png,,,,,,,,,,,,1,2,,,,,,,0,8,0,8,,,,,,,,,,,1348.202,1348.69,1348.9353,1351.4686,space,2.5212,,1351.4687,33,27,1352.4729,1352.4729,1352.4787,,,,0,31,31,31,1,45,105,,,,,,,,
,,5ff4a242cbe069bc27d9278b,65af75882cf40634cd5d7505,2024-01-23_09h19.43.909,bars,2023.2.3,Win32,60.24096386,657b66ea316d21385b68909f,,,,,,,,,,,1352.4788,1353.4684,,,1353.9684,1354.2222,,47,227,,,,,,,,,,,,,,,,bars/048.png,bars/mask007.png,,,,,,,,,,,,0,1,,,,,,,0,6,0,5,,,,,,,,,,,1353.4684,1353.9684,1354.2223,1357.3858,space,3.1476,,1357.3859,3,52,1358.3847,1358.3847,1358.3912,,,,0,32,32,32,1,50,175,,,,,,,,
,,5ff4a242cbe069bc27d9278b,65af75882cf40634cd5d7505,2024-01-23_09h19.43.909,bars,2023.2.3,Win32,60.24096386,657b66ea316d21385b68909f,,,,,,,,,,,1358.3913,1359.3847,,,1359.8847,1360.1346,,157,-23,,,,,,,,,,,,,,,,bars/016.png,bars/mask003.png,,,,,,,,,,,,3,2,,,,,,,0,4,1,4,,,,,,,,,,,1359.3847,1359.8847,1360.1346,1362.7887,space,2.6503,,1362.7887,63,8,1363.7847,1363.7847,1363.7909,,,,0,33,33,33,1,40,165,,,,,,,,
,,5ff4a242cbe069bc27d9278b,65af75882cf40634cd5d7505,2024-01-23_09h19.43.909,bars,2023.2.3,Win32,60.24096386,657b66ea316d21385b68909f,,,,,,,,,,,1363.791,1364.7893,,,1365.2846,1365.5346,,91,91,,,,,,,,,,,,,,,,bars/027.png,bars/mask000.png,,,,,,,,,,,,0,1,,,,,,,0,6,1,6,,,,,,,,,,,1364.7893,1365.2846,1365.5346,1368.818,space,3.2661,,1368.818,19,41,1369.8223,1369.8223,1369.8285,,,,0,34,34,34,1,110,50,,,,,,,,
,,5ff4a242cbe069bc27d9278b,65af75882cf40634cd5d7505,2024-01-23_09h19.43.909,bars,2023.2.3,Win32,60.24096386,657b66ea316d21385b68909f,,,,,,,,,,,1369.8287,1370.8177,,,1371.3056,1371.5508,,120,120,,,,,,,,,,,,,,,,bars/022.png,bars/mask003.png,,,,,,,,,,,,0,1,,,,,,,2,8,2,7,,,,,,,,,,,1370.8177,1371.3056,1371.5508,1374.1009,space,2.5354,,1374.1009,25,80,1375.1046,1375.1046,1375.1053,,,,0,35,35,35,1,95,20,,,,,,,,
,,5ff4a242cbe069bc27d9278b,65af75882cf40634cd5d7505,2024-01-23_09h19.43.909,bars,2023.2.3,Win32,60.24096386,657b66ea316d21385b68909f,,,,,,,,,,,1375.1055,1376.1008,,,1376.6007,1376.8505,,46,46,,,,,,,,,,,,,,,,bars/012.png,bars/mask000.png,,,,,,,,,,,,0,2,,,,,,,4,6,4,6,,,,,,,,,,,1376.1008,1376.6007,1376.8506,1377.684,space,0.8196,,1377.6841,44,31,1378.6878,1378.6879,1378.689,,,,0,36,36,36,1,90,15,,,,,,,,
,,5ff4a242cbe069bc27d9278b,65af75882cf40634cd5d7505,2024-01-23_09h19.43.909,bars,2023.2.3,Win32,60.24096386,657b66ea316d21385b68909f,,,,,,,,,,,1378.689,1379.6838,,,1380.1884,1380.434,,61,241,,,,,,,,,,,,,,,,bars/035.png,bars/mask000.png,,,,,,,,,,,,8,2,,,,,,,6,8,6,8,,,,,,,,,,,1379.6838,1380.1884,1380.434,1382.6838,space,2.2361,,1382.6838,66,1,1383.6717,1383.6717,1383.6774,,,,0,37,37,37,1,175,60,,,,,,,,
,,5ff4a242cbe069bc27d9278b,65af75882cf40634cd5d7505,2024-01-23_09h19.43.909,bars,2023.2.3,Win32,60.24096386,657b66ea316d21385b68909f,,,,,,,,,,,1383.6776,1384.6671,,,1385.1669,1385.4171,,108,108,,,,,,,,,,,,,,,,bars/026.png,bars/mask007.png,,,,,,,,,,,,1,2,,,,,,,8,6,8,6,,,,,,,,,,,1384.6671,1385.1669,1385.4172,1388.7002,space,3.2773,,1388.7002,73,23,1389.7047,1389.7048,1389.7104,,,,0,38,38,38,1,35,85,,,,,,,,
,,5ff4a242cbe069bc27d9278b,65af75882cf40634cd5d7505,2024-01-23_09h19.43.909,bars,2023.2.3,Win32,60.24096386,657b66ea316d21385b68909f,,,,,,,,,,,1389.7105,1390.7,,,1391.2001,1391.4381,,80,80,,,,,,,,,,,,,,,,bars/018.png,bars/mask004.png,,,,,,,,,,,,3,2,,,,,,,6,4,4,4,,,,,,,,,,,1390.7001,1391.2001,1391.4381,1394.3499,space,2.8839,,1394.35,70,10,1395.3503,1395.3504,1395.3571,,,,0,39,39,39,1,150,90,,,,,,,,
,,5ff4a242cbe069bc27d9278b,65af75882cf40634cd5d7505,2024-01-23_09h19.43.909,bars,2023.2.3,Win32,60.24096386,657b66ea316d21385b68909f,,,,,,,,,,,1395.3572,1396.3539,,,1396.8498,1397.0997,,19,199,,,,,,,,,,,,,,,,bars/008.png,bars/mask007.png,,,,,,,,,,,,2,2,,,,,,,4,6,5,5,,,,,,,,,,,1396.3539,1396.8497,1397.0997,1398.8831,space,1.7786,,1398.8831,89,19,1399.883,1399.8831,1399.8889,,,,0,40,40,40,1,110,0,,,,,,,,
,,5ff4a242cbe069bc27d9278b,65af75882cf40634cd5d7505,2024-01-23_09h19.43.909,bars,2023.2.3,Win32,60.24096386,657b66ea316d21385b68909f,,,,,,,,,,,1399.889,1400.8831,,,1401.3711,1401.6162,,79,79,,,,,,,,,,,,,,,,bars/019.png,bars/mask008.png,,,,,,,,,,,,1,2,,,,,,,6,8,8,8,,,,,,,,,,,1400.8831,1401.371,1401.6162,1403.2662,space,1.6206,,1403.2663,34,26,1404.2663,1404.2663,1404.2667,,,,0,41,41,41,1,45,105,,,,,,,,
,,5ff4a242cbe069bc27d9278b,65af75882cf40634cd5d7505,2024-01-23_09h19.43.909,bars,2023.2.3,Win32,60.24096386,657b66ea316d21385b68909f,,,,,,,,,,,1404.2669,1405.2661,,,1405.7571,1405.9994,,71,251,,,,,,,,,,,,,,,,bars/002.png,bars/mask003.png,,,,,,,,,,,,4,2,,,,,,,8,6,7,7,,,,,,,,,,,1405.2661,1405.757,1405.9994,1409.3993,space,3.3661,,1409.3993,59,14,1410.3993,1410.3994,1410.4051,,,,0,42,42,42,1,130,85,,,,,,,,
,,5ff4a242cbe069bc27d9278b,65af75882cf40634cd5d7505,2024-01-23_09h19.43.909,bars,2023.2.3,Win32,60.24096386,657b66ea316d21385b68909f,,,,,,,,,,,1410.4052,1411.3991,,,1411.8993,1412.149,,139,139,,,,,,,,,,,,,,,,bars/023.png,bars/mask008.png,,,,,,,,,,,,1,2,,,,,,,6,4,6,5,,,,,,,,,,,1411.3991,1411.8992,1412.1491,1412.9324,space,0.7609,,1412.9324,61,24,1413.9324,1413.9324,1413.9328,,,,0,43,43,43,1,20,115,,,,,,,,
,,5ff4a242cbe069bc27d9278b,65af75882cf40634cd5d7505,2024-01-23_09h19.43.909,bars,2023.2.3,Win32,60.24096386,657b66ea316d21385b68909f,,,,,,,,,,,1413.933,1414.9207,,,1415.4159,1415.6658,,71,71,,,,,,,,,,,,,,,,bars/037.png,bars/mask009.png,,,,,,,,,,,,0,2,,,,,,,4,2,5,2,,,,,,,,,,,1414.9207,1415.4159,1415.6658,1417.5823,space,1.9006,,1417.5823,79,34,1418.5822,1418.5822,1418.5827,,,,0,44,44,44,1,150,105,,,,,,,,
,,5ff4a242cbe069bc27d9278b,65af75882cf40634cd5d7505,2024-01-23_09h19.43.909,bars,2023.2.3,Win32,60.24096386,657b66ea316d21385b68909f,,,,,,,,,,,1418.5828,1419.5829,,,1420.0823,1420.3322,,174,174,,,,,,,,,,,,,,,,bars/032.png,bars/mask001.png,,,,,,,,,,,,0,2,,,,,,,2,0,4,0,,,,,,,,,,,1419.583,1420.0822,1420.3322,1423.321,space,2.9799,,1423.321,49,26,1424.3153,1424.3154,1424.321,,,,0,45,45,45,1,125,20,,,,,,,,
,,5ff4a242cbe069bc27d9278b,65af75882cf40634cd5d7505,2024-01-23_09h19.43.909,bars,2023.2.3,Win32,60.24096386,657b66ea316d21385b68909f,,,,,,,,,,,1424.3211,1425.3152,,,1425.8156,1426.0652,,110,-70,,,,,,,,,,,,,,,,bars/002.png,bars/mask002.png,,,,,,,,,,,,1,1,,,,,,,4,0,2,0,,,,,,,,,,,1425.3152,1425.8155,1426.0652,1429.4983,space,3.4287,,1429.4983,20,25,1430.4982,1430.4982,1430.5054,,,,0,46,46,46,1,130,85,,,,,,,,
,,5ff4a242cbe069bc27d9278b,65af75882cf40634cd5d7505,2024-01-23_09h19.43.909,bars,2023.2.3,Win32,60.24096386,657b66ea316d21385b68909f,,,,,,,,,,,1430.5056,1431.4985,,,1431.9984,1432.2486,,75,75,,,,,,,,,,,,,,,,bars/019.png,bars/mask000.png,,,,,,,,,,,,0,2,,,,,,,2,2,1,1,,,,,,,,,,,1431.4985,1431.9984,1432.2486,1433.0816,space,0.8042,,1433.0816,30,30,1434.0814,1434.0814,1434.0827,,,,0,47,47,47,1,45,105,,,,,,,,
,,5ff4a242cbe069bc27d9278b,65af75882cf40634cd5d7505,2024-01-23_09h19.43.909,bars,2023.2.3,Win32,60.24096386,657b66ea316d21385b68909f,,,,,,,,,,,1434.0828,1435.0814,,,1435.5821,1435.8315,,89,89,,,,,,,,,,,,,,,,bars/009.png,bars/mask004.png,,,,,,,,,,,,0,2,,,,,,,4,0,4,0,,,,,,,,,,,1435.0814,1435.5819,1435.8315,1438.0815,space,2.2339,,1438.0815,74,16,1439.0813,1439.0813,1439.0817,,,,0,48,48,48,1,15,105,,,,,,,,
,,5ff4a242cbe069bc27d9278b,65af75882cf40634cd5d7505,2024-01-23_09h19.43.909,bars,2023.2.3,Win32,60.24096386,657b66ea316d21385b68909f,,,,,,,,,,,1439.0819,1440.0812,,,1440.5852,1440.8313,,20,200,,,,,,,,,,,,,,,,bars/000.png,bars/mask008.png,,,,,,,,,,,,2,1,,,,,,,6,0,6,1,,,,,,,,,,,1440.0812,1440.5852,1440.8313,1443.0314,space,2.1873,,1443.0315,20,55,1444.0312,1444.0312,1444.0388,,,,0,49,49,49,1,40,145,,,,,,,,
,,5ff4a242cbe069bc27d9278b,65af75882cf40634cd5d7505,2024-01-23_09h19.43.909,bars,2023.2.3,Win32,60.24096386,657b66ea316d21385b68909f,,,,,,,,,,,,,,,,,,,,,,,,,,,,,,,,,,,,,,,,,,,,,,,,,,,,,,,,,,,,,,,,,,,,,,,,,,,,,,,,,,,,,,,,,,,,,1444.0389,1504.0287,0,3,3,1,1,sequence_tables/blk030.csv
,,5ff4a242cbe069bc27d9278b,65af75882cf40634cd5d7505,2024-01-23_09h19.43.909,bars,2023.2.3,Win32,60.24096386,657b66ea316d21385b68909f,,,,,,,,,,,1505.6472,1506.6496,,,1507.1449,1507.3951,,81,81,,,,,,,,,,,,,,,,bars/006.png,bars/mask003.png,,,,,,,,,,,,3,2,,,,,,,0,10,1,9,,,,,,1504.0348,1505.6451,space,1.5849,,1506.6496,1507.1449,1507.3951,1509.845,space,2.435,,1509.845,46,19,1510.8327,1510.8327,1510.8393,,,,0,0,0,0,1,35,100,,,,,,,,
,,5ff4a242cbe069bc27d9278b,65af75882cf40634cd5d7505,2024-01-23_09h19.43.909,bars,2023.2.3,Win32,60.24096386,657b66ea316d21385b68909f,,,,,,,,,,,1510.8393,1511.8282,,,1512.3281,1512.5782,,54,54,,,,,,,,,,,,,,,,bars/035.png,bars/mask006.png,,,,,,,,,,,,8,2,,,,,,,0,10,0,10,,,,,,,,,,,1511.8283,1512.3281,1512.5782,1516.0363,space,3.4366,,1516.0365,59,6,1517.0281,1517.0281,1517.0343,,,,0,1,1,1,1,175,60,,,,,,,,
,,5ff4a242cbe069bc27d9278b,65af75882cf40634cd5d7505,2024-01-23_09h19.43.909,bars,2023.2.3,Win32,60.24096386,657b66ea316d21385b68909f,,,,,,,,,,,1517.0344,1518.0289,,,1518.5276,1518.7777,,154,-26,,,,,,,,,,,,,,,,bars/008.png,bars/mask003.png,,,,,,,,,,,,1,2,,,,,,,0,10,0,10,,,,,,,,,,,1518.0289,1518.5276,1518.7777,1520.3446,space,1.5504,,1520.3446,44,26,1521.3442,1521.3442,1521.3447,,,,0,2,2,2,1,110,0,,,,,,,,
,,5ff4a242cbe069bc27d9278b,65af75882cf40634cd5d7505,2024-01-23_09h19.43.909,bars,2023.2.3,Win32,60.24096386,657b66ea316d21385b68909f,,,,,,,,,,,1521.3448,1522.3492,,,1522.8443,1523.0945,,45,45,,,,,,,,,,,,,,,,bars/000.png,bars/mask003.png,,,,,,,,,,,,0,1,,,,,,,0,8,0,9,,,,,,,,,,,1522.3492,1522.8443,1523.0945,1525.0442,space,1.9197,,1525.0442,5,80,1526.0441,1526.0441,1526.0459,,,,0,3,3,3,1,40,145,,,,,,,,
,,5ff4a242cbe069bc27d9278b,65af75882cf40634cd5d7505,2024-01-23_09h19.43.909,bars,2023.2.3,Win32,60.24096386,657b66ea316d21385b68909f,,,,,,,,,,,1526.0461,1527.0442,,,1527.549,1527.7941,,158,-22,,,,,,,,,,,,,,,,bars/043.png,bars/mask009.png,,,,,,,,,,,,1,2,,,,,,,2,10,3,10,,,,,,,,,,,1527.0442,1527.549,1527.7942,1530.5439,space,2.7428,,1530.544,52,28,1531.544,1531.544,1531.5501,,,,0,4,4,4,1,30,130,,,,,,,,
,,5ff4a242cbe069bc27d9278b,65af75882cf40634cd5d7505,2024-01-23_09h19.43.909,bars,2023.2.3,Win32,60.24096386,657b66ea316d21385b68909f,,,,,,,,,,,1531.5502,1532.5438,,,1533.0442,1533.2819,,110,110,,,,,,,,,,,,,,,,bars/004.png,bars/mask002.png,,,,,,,,,,,,5,2,,,,,,,0,10,0,10,,,,,,,,,,,1532.5438,1533.0442,1533.2819,1535.677,space,2.381,,1535.677,85,15,1536.6651,1536.6652,1536.671,,,,0,5,5,5,1,25,125,,,,,,,,
,,5ff4a242cbe069bc27d9278b,65af75882cf40634cd5d7505,2024-01-23_09h19.43.909,bars,2023.2.3,Win32,60.24096386,657b66ea316d21385b68909f,,,,,,,,,,,1536.6712,1537.6647,,,1538.1605,1538.4104,,108,108,,,,,,,,,,,,,,,,bars/049.png,bars/mask006.png,,,,,,,,,,,,8,2,,,,,,,2,10,1,10,,,,,,,,,,,1537.6647,1538.1604,1538.4104,1540.7102,space,2.267,,1540.7102,52,7,1541.7101,1541.7101,1541.7107,,,,0,6,6,6,1,160,115,,,,,,,,
,,5ff4a242cbe069bc27d9278b,65af75882cf40634cd5d7505,2024-01-23_09h19.43.909,bars,2023.2.3,Win32,60.24096386,657b66ea316d21385b68909f,,,,,,,,,,,1541.7108,1542.6988,,,1543.1933,1543.4318,,11,191,,,,,,,,,,,,,,,,bars/007.png,bars/mask003.png,,,,,,,,,,,,0,1,,,,,,,0,10,0,9,,,,,,,,,,,1542.6988,1543.1933,1543.4318,1544.7936,space,1.3416,,1544.7936,16,44,1545.7933,1545.7933,1545.7944,,,,0,7,7,7,1,175,55,,,,,,,,
,,5ff4a242cbe069bc27d9278b,65af75882cf40634cd5d7505,2024-01-23_09h19.43.909,bars,2023.2.3,Win32,60.24096386,657b66ea316d21385b68909f,,,,,,,,,,,1545.7945,1546.7934,,,1547.2933,1547.5433,,169,-11,,,,,,,,,,,,,,,,bars/010.png,bars/mask007.png,,,,,,,,,,,,2,1,,,,,,,2,8,2,7,,,,,,,,,,,1546.7934,1547.2933,1547.5433,1549.9315,space,2.366,,1549.9316,4,66,1550.9266,1550.9266,1550.9329,,,,0,8,8,8,1,165,55,,,,,,,,
,,5ff4a242cbe069bc27d9278b,65af75882cf40634cd5d7505,2024-01-23_09h19.43.909,bars,2023.2.3,Win32,60.24096386,657b66ea316d21385b68909f,,,,,,,,,,,1550.933,1551.9265,,,1552.4266,1552.6764,,140,140,,,,,,,,,,,,,,,,bars/029.png,bars/mask006.png,,,,,,,,,,,,0,1,,,,,,,0,6,1,6,,,,,,,,,,,1551.9265,1552.4265,1552.6764,1555.8598,space,3.1531,,1555.8598,50,85,1556.8597,1556.8597,1556.8651,,,,0,9,9,9,1,90,45,,,,,,,,
,,5ff4a242cbe069bc27d9278b,65af75882cf40634cd5d7505,2024-01-23_09h19.43.909,bars,2023.2.3,Win32,60.24096386,657b66ea316d21385b68909f,,,,,,,,,,,1556.8653,1557.8598,,,1558.3594,1558.6093,,136,-44,,,,,,,,,,,,,,,,bars/025.png,bars/mask006.png,,,,,,,,,,,,0,1,,,,,,,2,8,2,7,,,,,,,,,,,1557.8598,1558.3593,1558.6093,1561.9925,space,3.37,,1561.9926,31,84,1562.9926,1562.9927,1562.9985,,,,0,10,10,10,1,105,40,,,,,,,,
,,5ff4a242cbe069bc27d9278b,65af75882cf40634cd5d7505,2024-01-23_09h19.43.909,bars,2023.2.3,Win32,60.24096386,657b66ea316d21385b68909f,,,,,,,,,,,1562.9986,1563.9924,,,1564.4925,1564.7424,,45,45,,,,,,,,,,,,,,,,bars/044.png,bars/mask008.png,,,,,,,,,,,,0,1,,,,,,,0,6,0,6,,,,,,,,,,,1563.9924,1564.4925,1564.7424,1566.5638,space,1.8151,,1566.5639,30,70,1567.5591,1567.5591,1567.5596,,,,0,11,11,11,1,75,155,,,,,,,,
,,5ff4a242cbe069bc27d9278b,65af75882cf40634cd5d7505,2024-01-23_09h19.43.909,bars,2023.2.3,Win32,60.24096386,657b66ea316d21385b68909f,,,,,,,,,,,1567.5598,1568.5591,,,1569.0589,1569.309,,57,237,,,,,,,,,,,,,,,,bars/021.png,bars/mask006.png,,,,,,,,,,,,3,2,,,,,,,0,4,0,5,,,,,,,,,,,1568.5591,1569.0588,1569.3091,1572.2304,space,2.9004,,1572.2304,82,13,1573.2254,1573.2255,1573.2324,,,,0,12,12,12,1,155,70,,,,,,,,
,,5ff4a242cbe069bc27d9278b,65af75882cf40634cd5d7505,2024-01-23_09h19.43.909,bars,2023.2.3,Win32,60.24096386,657b66ea316d21385b68909f,,,,,,,,,,,1573.2325,1574.2255,,,1574.7254,1574.9633,,113,113,,,,,,,,,,,,,,,,bars/006.png,bars/mask009.png,,,,,,,,,,,,2,2,,,,,,,2,2,2,3,,,,,,,,,,,1574.2255,1574.7254,1574.9633,1577.8296,space,2.8631,,1577.8297,78,13,1578.825,1578.8251,1578.8316,,,,0,13,13,13,1,35,100,,,,,,,,
