init_variables.started,init_variables.stopped,participant,session,date,expName,psychopyVersion,OS,frameRate,study_id,instruction_exp.started,instruction_exp.stopped,key_resp_8.keys,key_resp_8.rt,key_resp_8.duration,instruction_single.started,instruction_single.stopped,key_resp_2.keys,key_resp_2.rt,key_resp_2.duration,interval.started,interval.stopped,cue_single.started,cue_single.stopped,mask.started,mask.stopped,ori_response_single.started,res_ori,res,ori_response_single.stopped,key_resp_single.keys,key_resp_single.rt,key_resp_single.duration,disp_single.started,disp_single.stopped,key_resp.keys,key_resp.rt,key_resp.duration,single.thisRepN,single.thisTrialN,single.thisN,single.thisIndex,single.ran,ori,path,mask_path,instruction_bandit.started,instruction_bandit.stopped,key_resp_6.keys,key_resp_6.rt,key_resp_6.duration,cue_bandit.started,cue_bandit.stopped,bandit_res.keys,bandit_res.rt,bandit_res.duration,outcome_bandit.started,rew,action,outcome_bandit.stopped,bandit.thisRepN,bandit.thisTrialN,bandit.thisN,bandit.thisIndex,bandit.ran,actual_rew1,actual_rew2,rew1,rew2,instruction_task.started,instruction_task.stopped,key_resp_7.keys,key_resp_7.rt,key_resp_7.duration,wait_ready.started,wait_ready.stopped,key_resp_3.keys,key_resp_3.rt,key_resp_3.duration,cue.started,cue.stopped,ori_response.started,ori_response.stopped,key_resp_5.keys,key_resp_5.rt,key_resp_5.duration,outcome.started,diff1,diff2,outcome.stopped,disp_outcome_practice.started,disp_outcome_practice.stopped,key_resp_4.keys,key_resp_4.rt,key_resp_4.duration,trials.thisRepN,trials.thisTrialN,trials.thisN,trials.thisIndex,trials.ran,ori1,ori2,break_blk.started,break_blk.stopped,block.thisRepN,block.thisTrialN,block.thisN,block.thisIndex,block.ran,condition_file
0.0005,0.0006,652414a8df1d3adfddec9600,65af55c14abd09284145a175,2024-01-23_24h00.00.254,bars,2023.2.3,Win32,138.8888889,657b66ea316d21385b68909f,,,,,,,,,,,,,,,,,,,,,,,,,,,,,,,,,,,,,,,,,,,,,,,,,,,,,,,,,,,,,,,,,,,,,,,,,,,,,,,,,,,,,,,,,,,,,,,,,,,,
,,652414a8df1d3adfddec9600,65af55c14abd09284145a175,2024-01-23_24h00.00.254,bars,2023.2.3,Win32,138.8888889,657b66ea316d21385b68909f,0.0007,5.9071,y,5.878,,,,,,,,,,,,,,,,,,,,,,,,,,,,,,,,,,,,,,,,,,,,,,,,,,,,,,,,,,,,,,,,,,,,,,,,,,,,,,,,,,,,,,,,,,,,,,,,
,,652414a8df1d3adfddec9600,65af55c14abd09284145a175,2024-01-23_24h00.00.254,bars,2023.2.3,Win32,138.8888889,657b66ea316d21385b68909f,,,,,,5.9073,18.7452,space,12.8272,,,,,,,,,,,,,,,,,,,,,,,,,,,,,,,,,,,,,,,,,,,,,,,,,,,,,,,,,,,,,,,,,,,,,,,,,,,,,,,,,,,,,,,,,,,
,,652414a8df1d3adfddec9600,65af55c14abd09284145a175,2024-01-23_24h00.00.254,bars,2023.2.3,Win32,138.8888889,657b66ea316d21385b68909f,,,,,,,,,,,18.7474,19.7482,19.7483,20.2453,20.2454,20.4967,20.4968,10,10,24.7831,space,4.2731,,24.7831,32.1972,space,7.403,,0,0,0,3,1,20,bars/single003.png,bars/mask005.png,,,,,,,,,,,,,,,,,,,,,,,,,,,,,,,,,,,,,,,,,,,,,,,,,,,,,,,,,,,,,,,,
,,652414a8df1d3adfddec9600,65af55c14abd09284145a175,2024-01-23_24h00.00.254,bars,2023.2.3,Win32,138.8888889,657b66ea316d21385b68909f,,,,,,,,,,,32.1973,33.1993,33.1993,33.6996,33.6997,33.9464,33.9464,44,44,39.6533,space,5.6946,,39.6533,48.6088,space,8.9416,,0,1,1,8,1,160,bars/single008.png,bars/mask004.png,,,,,,,,,,,,,,,,,,,,,,,,,,,,,,,,,,,,,,,,,,,,,,,,,,,,,,,,,,,,,,,,
,,652414a8df1d3adfddec9600,65af55c14abd09284145a175,2024-01-23_24h00.00.254,bars,2023.2.3,Win32,138.8888889,657b66ea316d21385b68909f,,,,,,,,,,,48.613,49.6107,49.6107,50.1098,50.1099,50.357,50.357,72,72,54.9674,space,4.5998,,54.9674,56.601,space,1.6228,,0,2,2,4,1,95,bars/single004.png,bars/mask004.png,,,,,,,,,,,,,,,,,,,,,,,,,,,,,,,,,,,,,,,,,,,,,,,,,,,,,,,,,,,,,,,,
,,652414a8df1d3adfddec9600,65af55c14abd09284145a175,2024-01-23_24h00.00.254,bars,2023.2.3,Win32,138.8888889,657b66ea316d21385b68909f,,,,,,,,,,,56.6011,57.6032,57.6032,58.1044,58.1044,58.3513,58.3514,15,15,60.1592,space,1.8006,,60.1592,62.8812,space,2.7137,,0,3,3,1,1,20,bars/single001.png,bars/mask006.png,,,,,,,,,,,,,,,,,,,,,,,,,,,,,,,,,,,,,,,,,,,,,,,,,,,,,,,,,,,,,,,,
,,652414a8df1d3adfddec9600,65af55c14abd09284145a175,2024-01-23_24h00.00.254,bars,2023.2.3,Win32,138.8888889,657b66ea316d21385b68909f,,,,,,,,,,,62.8851,63.8858,63.8858,64.3823,64.3823,64.6275,64.6275,42,42,66.2625,space,1.6277,,66.2625,68.7633,space,2.4893,,0,4,4,9,1,20,bars/single009.png,bars/mask006.png,,,,,,,,,,,,,,,,,,,,,,,,,,,,,,,,,,,,,,,,,,,,,,,,,,,,,,,,,,,,,,,,
,,652414a8df1d3adfddec9600,65af55c14abd09284145a175,2024-01-23_24h00.00.254,bars,2023.2.3,Win32,138.8888889,657b66ea316d21385b68909f,,,,,,,,,,,68.7671,69.7622,69.7622,70.2641,70.2641,70.511,70.5111,43,223,73.1435,space,2.6266,,73.1435,74.9965,space,1.8395,,0,5,5,5,1,55,bars/single005.png,bars/mask008.png,,,,,,,,,,,,,,,,,,,,,,,,,,,,,,,,,,,,,,,,,,,,,,,,,,,,,,,,,,,,,,,,
,,652414a8df1d3adfddec9600,65af55c14abd09284145a175,2024-01-23_24h00.00.254,bars,2023.2.3,Win32,138.8888889,657b66ea316d21385b68909f,,,,,,,,,,,74.9967,75.9919,75.9919,76.4865,76.4866,76.7333,76.7333,114,114,80.3596,space,3.6195,,80.3596,82.7591,space,2.3869,,0,6,6,2,1,145,bars/single002.png,bars/mask003.png,,,,,,,,,,,,,,,,,,,,,,,,,,,,,,,,,,,,,,,,,,,,,,,,,,,,,,,,,,,,,,,,
,,652414a8df1d3adfddec9600,65af55c14abd09284145a175,2024-01-23_24h00.00.254,bars,2023.2.3,Win32,138.8888889,657b66ea316d21385b68909f,,,,,,,,,,,82.7632,83.7617,83.7617,84.2629,84.2629,84.5095,84.5095,83,83,88.6744,space,4.1557,,88.6744,91.5957,space,2.908,,0,7,7,7,1,45,bars/single007.png,bars/mask009.png,,,,,,,,,,,,,,,,,,,,,,,,,,,,,,,,,,,,,,,,,,,,,,,,,,,,,,,,,,,,,,,,
,,652414a8df1d3adfddec9600,65af55c14abd09284145a175,2024-01-23_24h00.00.254,bars,2023.2.3,Win32,138.8888889,657b66ea316d21385b68909f,,,,,,,,,,,91.5959,92.5952,92.5952,93.0948,93.0948,93.3422,93.3423,172,-8,96.5029,space,3.1533,,96.5029,97.69,space,1.1745,,0,8,8,0,1,150,bars/single000.png,bars/mask006.png,,,,,,,,,,,,,,,,,,,,,,,,,,,,,,,,,,,,,,,,,,,,,,,,,,,,,,,,,,,,,,,,
,,652414a8df1d3adfddec9600,65af55c14abd09284145a175,2024-01-23_24h00.00.254,bars,2023.2.3,Win32,138.8888889,657b66ea316d21385b68909f,,,,,,,,,,,97.6901,98.6854,98.6854,99.1803,99.1803,99.4264,99.4265,166,166,102.9342,space,3.5017,,102.9342,104.0822,space,1.1376,,0,9,9,6,1,175,bars/single006.png,bars/mask005.png,,,,,,,,,,,,,,,,,,,,,,,,,,,,,,,,,,,,,,,,,,,,,,,,,,,,,,,,,,,,,,,,
,,652414a8df1d3adfddec9600,65af55c14abd09284145a175,2024-01-23_24h00.00.254,bars,2023.2.3,Win32,138.8888889,657b66ea316d21385b68909f,,,,,,,,,,,,,,,,,,,,,,,,,,,,,,,,,,,,,104.0826,113.7554,space,9.6647,,,,,,,,,,,,,,,,,,,,,,,,,,,,,,,,,,,,,,,,,,,,,,,,,,,,,,,,,,,,
,,652414a8df1d3adfddec9600,65af55c14abd09284145a175,2024-01-23_24h00.00.254,bars,2023.2.3,Win32,138.8888889,657b66ea316d21385b68909f,,,,,,,,,,,,,,,,,,,,,,,,,,,,,,,,,,,,,,,,,,113.7608,117.6869,left,3.914,,117.6869,9,1,118.689,0,0,0,0,1,9,1,9,2,,,,,,,,,,,,,,,,,,,,,,,,,,,,,,,,,,,,,,,,,
,,652414a8df1d3adfddec9600,65af55c14abd09284145a175,2024-01-23_24h00.00.254,bars,2023.2.3,Win32,138.8888889,657b66ea316d21385b68909f,,,,,,,,,,,,,,,,,,,,,,,,,,,,,,,,,,,,,,,,,,118.6893,122.6808,left,3.9809,,122.6808,10,1,123.6756,0,1,1,1,1,10,0,10,1,,,,,,,,,,,,,,,,,,,,,,,,,,,,,,,,,,,,,,,,,
,,652414a8df1d3adfddec9600,65af55c14abd09284145a175,2024-01-23_24h00.00.254,bars,2023.2.3,Win32,138.8888889,657b66ea316d21385b68909f,,,,,,,,,,,,,,,,,,,,,,,,,,,,,,,,,,,,,,,,,,123.6797,125.2109,right,1.5271,,125.211,2,2,126.2072,0,2,2,2,1,10,2,10,2,,,,,,,,,,,,,,,,,,,,,,,,,,,,,,,,,,,,,,,,,
,,652414a8df1d3adfddec9600,65af55c14abd09284145a175,2024-01-23_24h00.00.254,bars,2023.2.3,Win32,138.8888889,657b66ea316d21385b68909f,,,,,,,,,,,,,,,,,,,,,,,,,,,,,,,,,,,,,,,,,,126.2116,126.5972,left,0.3775,,126.5972,7,1,127.5934,0,3,3,3,1,8,4,7,3,,,,,,,,,,,,,,,,,,,,,,,,,,,,,,,,,,,,,,,,,
,,652414a8df1d3adfddec9600,65af55c14abd09284145a175,2024-01-23_24h00.00.254,bars,2023.2.3,Win32,138.8888889,657b66ea316d21385b68909f,,,,,,,,,,,,,,,,,,,,,,,,,,,,,,,,,,,,,,,,,,127.5935,128,left,0.4007,,128,5,1,128.9943,0,4,4,4,1,6,2,5,1,,,,,,,,,,,,,,,,,,,,,,,,,,,,,,,,,,,,,,,,,
,,652414a8df1d3adfddec9600,65af55c14abd09284145a175,2024-01-23_24h00.00.254,bars,2023.2.3,Win32,138.8888889,657b66ea316d21385b68909f,,,,,,,,,,,,,,,,,,,,,,,,,,,,,,,,,,,,,,,,,,128.9945,129.3755,right,0.3718,,129.3755,4,2,130.3764,0,5,5,5,1,4,4,4,4,,,,,,,,,,,,,,,,,,,,,,,,,,,,,,,,,,,,,,,,,
,,652414a8df1d3adfddec9600,65af55c14abd09284145a175,2024-01-23_24h00.00.254,bars,2023.2.3,Win32,138.8888889,657b66ea316d21385b68909f,,,,,,,,,,,,,,,,,,,,,,,,,,,,,,,,,,,,,,,,,,130.3766,130.9413,left,0.5559,,130.9413,1,1,131.9429,0,6,6,6,1,2,2,1,2,,,,,,,,,,,,,,,,,,,,,,,,,,,,,,,,,,,,,,,,,
,,652414a8df1d3adfddec9600,65af55c14abd09284145a175,2024-01-23_24h00.00.254,bars,2023.2.3,Win32,138.8888889,657b66ea316d21385b68909f,,,,,,,,,,,,,,,,,,,,,,,,,,,,,,,,,,,,,,,,,,131.9431,132.2378,right,0.2838,,132.2378,1,2,133.2325,0,7,7,7,1,0,0,0,1,,,,,,,,,,,,,,,,,,,,,,,,,,,,,,,,,,,,,,,,,
,,652414a8df1d3adfddec9600,65af55c14abd09284145a175,2024-01-23_24h00.00.254,bars,2023.2.3,Win32,138.8888889,657b66ea316d21385b68909f,,,,,,,,,,,,,,,,,,,,,,,,,,,,,,,,,,,,,,,,,,133.2327,133.8858,right,0.6415,,133.8858,0,2,134.8871,0,8,8,8,1,0,2,1,0,,,,,,,,,,,,,,,,,,,,,,,,,,,,,,,,,,,,,,,,,
,,652414a8df1d3adfddec9600,65af55c14abd09284145a175,2024-01-23_24h00.00.254,bars,2023.2.3,Win32,138.8888889,657b66ea316d21385b68909f,,,,,,,,,,,,,,,,,,,,,,,,,,,,,,,,,,,,,,,,,,134.8874,135.4852,left,0.5904,,135.4853,2,1,136.4864,0,9,9,9,1,2,4,2,3,,,,,,,,,,,,,,,,,,,,,,,,,,,,,,,,,,,,,,,,,
,,652414a8df1d3adfddec9600,65af55c14abd09284145a175,2024-01-23_24h00.00.254,bars,2023.2.3,Win32,138.8888889,657b66ea316d21385b68909f,,,,,,,,,,,,,,,,,,,,,,,,,,,,,,,,,,,,,,,,,,136.4866,136.55,left,0.0522,,136.55,0,1,137.5519,0,10,10,10,1,0,2,0,3,,,,,,,,,,,,,,,,,,,,,,,,,,,,,,,,,,,,,,,,,
,,652414a8df1d3adfddec9600,65af55c14abd09284145a175,2024-01-23_24h00.00.254,bars,2023.2.3,Win32,138.8888889,657b66ea316d21385b68909f,,,,,,,,,,,,,,,,,,,,,,,,,,,,,,,,,,,,,,,,,,137.5521,139.1825,right,1.6209,,139.1826,3,2,140.1844,0,11,11,11,1,0,4,0,3,,,,,,,,,,,,,,,,,,,,,,,,,,,,,,,,,,,,,,,,,
,,652414a8df1d3adfddec9600,65af55c14abd09284145a175,2024-01-23_24h00.00.254,bars,2023.2.3,Win32,138.8888889,657b66ea316d21385b68909f,,,,,,,,,,,,,,,,,,,,,,,,,,,,,,,,,,,,,,,,,,140.1887,142.375,left,2.1818,,142.3751,1,1,143.3769,0,12,12,12,1,2,6,1,6,,,,,,,,,,,,,,,,,,,,,,,,,,,,,,,,,,,,,,,,,
,,652414a8df1d3adfddec9600,65af55c14abd09284145a175,2024-01-23_24h00.00.254,bars,2023.2.3,Win32,138.8888889,657b66ea316d21385b68909f,,,,,,,,,,,,,,,,,,,,,,,,,,,,,,,,,,,,,,,,,,143.377,143.5842,right,0.1972,,143.5842,3,2,144.5844,0,13,13,13,1,0,4,1,3,,,,,,,,,,,,,,,,,,,,,,,,,,,,,,,,,,,,,,,,,
,,652414a8df1d3adfddec9600,65af55c14abd09284145a175,2024-01-23_24h00.00.254,bars,2023.2.3,Win32,138.8888889,657b66ea316d21385b68909f,,,,,,,,,,,,,,,,,,,,,,,,,,,,,,,,,,,,,,,,,,144.5846,144.9178,right,0.3251,,144.9178,7,2,145.9195,0,14,14,14,1,2,6,2,7,,,,,,,,,,,,,,,,,,,,,,,,,,,,,,,,,,,,,,,,,
,,652414a8df1d3adfddec9600,65af55c14abd09284145a175,2024-01-23_24h00.00.254,bars,2023.2.3,Win32,138.8888889,657b66ea316d21385b68909f,,,,,,,,,,,,,,,,,,,,,,,,,,,,,,,,,,,,,,,,,,145.9197,146.2523,right,0.3232,,146.2524,9,2,147.248,0,15,15,15,1,4,8,3,9,,,,,,,,,,,,,,,,,,,,,,,,,,,,,,,,,,,,,,,,,
,,652414a8df1d3adfddec9600,65af55c14abd09284145a175,2024-01-23_24h00.00.254,bars,2023.2.3,Win32,138.8888889,657b66ea316d21385b68909f,,,,,,,,,,,,,,,,,,,,,,,,,,,,,,,,,,,,,,,,,,147.2484,147.511,right,0.2551,,147.511,7,2,148.5072,0,16,16,16,1,6,6,7,7,,,,,,,,,,,,,,,,,,,,,,,,,,,,,,,,,,,,,,,,,
,,652414a8df1d3adfddec9600,65af55c14abd09284145a175,2024-01-23_24h00.00.254,bars,2023.2.3,Win32,138.8888889,657b66ea316d21385b68909f,,,,,,,,,,,,,,,,,,,,,,,,,,,,,,,,,,,,,,,,,,148.5073,148.7528,left,0.236,,148.7529,9,1,149.7546,0,17,17,17,1,8,4,9,5,,,,,,,,,,,,,,,,,,,,,,,,,,,,,,,,,,,,,,,,,
,,652414a8df1d3adfddec9600,65af55c14abd09284145a175,2024-01-23_24h00.00.254,bars,2023.2.3,Win32,138.8888889,657b66ea316d21385b68909f,,,,,,,,,,,,,,,,,,,,,,,,,,,,,,,,,,,,,,,,,,149.7549,149.9617,left,0.2,,149.9618,5,1,150.9631,0,18,18,18,1,6,2,5,1,,,,,,,,,,,,,,,,,,,,,,,,,,,,,,,,,,,,,,,,,
,,652414a8df1d3adfddec9600,65af55c14abd09284145a175,2024-01-23_24h00.00.254,bars,2023.2.3,Win32,138.8888889,657b66ea316d21385b68909f,,,,,,,,,,,,,,,,,,,,,,,,,,,,,,,,,,,,,,,,,,150.9633,151.1303,right,0.1578,,151.1303,0,2,152.1262,0,19,19,19,1,8,0,7,0,,,,,,,,,,,,,,,,,,,,,,,,,,,,,,,,,,,,,,,,,
,,652414a8df1d3adfddec9600,65af55c14abd09284145a175,2024-01-23_24h00.00.254,bars,2023.2.3,Win32,138.8888889,657b66ea316d21385b68909f,,,,,,,,,,,,,,,,,,,,,,,,,,,,,,,,,,,,,,,,,,,,,,,,,,,,,,,,,,,,152.1265,163.0507,space,10.9141,,,,,,,,,,,,,,,,,,,,,,,,,,,,,,,,,,,,,
,,652414a8df1d3adfddec9600,65af55c14abd09284145a175,2024-01-23_24h00.00.254,bars,2023.2.3,Win32,138.8888889,657b66ea316d21385b68909f,,,,,,,,,,,163.818,164.8188,,,165.3202,165.5654,,6,6,,,,,,,,,,,,,,,,bars/048.png,bars/mask008.png,,,,,,,,,,,,4,2,,,,,,,5,9,5,7,,,,,,163.0561,163.8165,space,0.7508,,164.8189,165.3202,165.5655,168.1059,space,2.5318,,168.106,44,11,169.1003,169.1004,173.7471,space,4.6349,,0,0,0,0,1,50,175,,,,,,,,
,,652414a8df1d3adfddec9600,65af55c14abd09284145a175,2024-01-23_24h00.00.254,bars,2023.2.3,Win32,138.8888889,657b66ea316d21385b68909f,,,,,,,,,,,173.7514,174.7532,,,175.2516,175.4986,,53,53,,,,,,,,,,,,,,,,bars/035.png,bars/mask003.png,,,,,,,,,,,,4,2,,,,,,,7,7,10,5,,,,,,,,,,,174.7532,175.2516,175.4986,177.7621,space,2.2549,,177.7621,58,7,178.764,178.764,180.7769,space,2.0039,,0,1,1,1,1,175,60,,,,,,,,
,,652414a8df1d3adfddec9600,65af55c14abd09284145a175,2024-01-23_24h00.00.254,bars,2023.2.3,Win32,138.8888889,657b66ea316d21385b68909f,,,,,,,,,,,180.7771,181.7748,,,182.2757,182.5215,,178,-2,,,,,,,,,,,,,,,,bars/018.png,bars/mask001.png,,,,,,,,,,,,0,1,,,,,,,5,5,6,3,,,,,,,,,,,181.7748,182.2757,182.5215,185.57,space,3.0437,,185.57,28,88,186.5651,186.5651,187.464,space,0.884,,0,2,2,2,1,150,90,,,,,,,,
,,652414a8df1d3adfddec9600,65af55c14abd09284145a175,2024-01-23_24h00.00.254,bars,2023.2.3,Win32,138.8888889,657b66ea316d21385b68909f,,,,,,,,,,,187.4642,188.459,,,188.9609,189.2073,,59,59,,,,,,,,,,,,,,,,bars/031.png,bars/mask008.png,,,,,,,,,,,,1,2,,,,,,,7,3,6,6,,,,,,,,,,,188.459,188.9609,189.2073,190.4802,space,1.262,,190.4802,61,24,191.475,191.475,192.2552,space,0.7674,,0,3,3,3,1,120,35,,,,,,,,
,,652414a8df1d3adfddec9600,65af55c14abd09284145a175,2024-01-23_24h00.00.254,bars,2023.2.3,Win32,138.8888889,657b66ea316d21385b68909f,,,,,,,,,,,192.2553,193.2559,,,193.7574,194.0027,,16,196,,,,,,,,,,,,,,,,bars/040.png,bars/mask007.png,,,,,,,,,,,,4,2,,,,,,,9,5,9,6,,,,,,,,,,,193.2559,193.7574,194.0027,196.0528,space,2.0412,,196.0529,56,11,197.0552,197.0552,197.6352,space,0.5687,,0,4,4,4,1,140,5,,,,,,,,
,,652414a8df1d3adfddec9600,65af55c14abd09284145a175,2024-01-23_24h00.00.254,bars,2023.2.3,Win32,138.8888889,657b66ea316d21385b68909f,,,,,,,,,,,197.6355,198.633,,,199.1343,199.3812,,135,135,,,,,,,,,,,,,,,,bars/005.png,bars/mask005.png,,,,,,,,,,,,5,2,,,,,,,10,7,9,6,,,,,,,,,,,198.633,199.1343,199.3812,200.3363,space,0.9444,,200.3364,55,5,201.3375,201.3377,201.9746,space,0.6296,,0,5,5,5,1,10,140,,,,,,,,
,,652414a8df1d3adfddec9600,65af55c14abd09284145a175,2024-01-23_24h00.00.254,bars,2023.2.3,Win32,138.8888889,657b66ea316d21385b68909f,,,,,,,,,,,201.9748,202.9713,,,203.4658,203.7118,,62,62,,,,,,,,,,,,,,,,bars/019.png,bars/mask004.png,,,,,,,,,,,,3,1,,,,,,,8,5,7,4,,,,,,,,,,,202.9713,203.4658,203.7119,207.0278,space,3.3092,,207.0278,17,43,208.024,208.0241,208.9465,space,0.9096,,0,6,6,6,1,45,105,,,,,,,,
,,652414a8df1d3adfddec9600,65af55c14abd09284145a175,2024-01-23_24h00.00.254,bars,2023.2.3,Win32,138.8888889,657b66ea316d21385b68909f,,,,,,,,,,,208.9466,209.946,,,210.4472,210.693,,12,12,,,,,,,,,,,,,,,,bars/040.png,bars/mask007.png,,,,,,,,,,,,6,2,,,,,,,6,7,6,8,,,,,,,,,,,209.946,210.4472,210.693,211.6726,space,0.9685,,211.6727,52,7,212.6676,212.6676,213.1213,space,0.4451,,0,7,7,7,1,140,5,,,,,,,,
,,652414a8df1d3adfddec9600,65af55c14abd09284145a175,2024-01-23_24h00.00.254,bars,2023.2.3,Win32,138.8888889,657b66ea316d21385b68909f,,,,,,,,,,,213.1214,214.119,,,214.6204,214.8664,,61,61,,,,,,,,,,,,,,,,bars/007.png,bars/mask009.png,,,,,,,,,,,,5,2,,,,,,,8,5,9,6,,,,,,,,,,,214.119,214.6204,214.8664,215.5521,space,0.6803,,215.5521,66,6,216.5482,216.5482,217.1845,space,0.6246,,0,8,8,8,1,175,55,,,,,,,,
,,652414a8df1d3adfddec9600,65af55c14abd09284145a175,2024-01-23_24h00.00.254,bars,2023.2.3,Win32,138.8888889,657b66ea316d21385b68909f,,,,,,,,,,,217.1847,218.1806,,,218.6812,218.9269,,66,66,,,,,,,,,,,,,,,,bars/035.png,bars/mask002.png,,,,,,,,,,,,6,2,,,,,,,10,7,10,8,,,,,,,,,,,218.1807,218.6812,218.9269,221.9097,space,2.976,,221.9097,71,6,222.9118,222.9118,223.3988,space,0.474,,0,9,9,9,1,175,60,,,,,,,,
,,652414a8df1d3adfddec9600,65af55c14abd09284145a175,2024-01-23_24h00.00.254,bars,2023.2.3,Win32,138.8888889,657b66ea316d21385b68909f,,,,,,,,,,,223.3991,224.3932,,,224.8951,225.1424,,155,-25,,,,,,,,,,,,,,,,bars/016.png,bars/mask000.png,,,,,,,,,,,,6,2,,,,,,,8,9,8,9,,,,,,,,,,,224.3932,224.8951,225.1424,227.1285,space,1.9781,,227.1286,65,10,228.1281,228.1281,228.3585,space,0.2152,,0,10,10,10,1,40,165,,,,,,,,
,,652414a8df1d3adfddec9600,65af55c14abd09284145a175,2024-01-23_24h00.00.254,bars,2023.2.3,Win32,138.8888889,657b66ea316d21385b68909f,,,,,,,,,,,228.3587,229.3579,,,229.8592,230.1051,,65,65,,,,,,,,,,,,,,,,bars/038.png,bars/mask008.png,,,,,,,,,,,,8,2,,,,,,,6,10,5,10,,,,,,,,,,,229.3579,229.8592,230.1051,233.0334,space,2.9172,,233.0334,80,5,234.0277,234.0277,234.3704,space,0.3322,,0,11,11,11,1,165,70,,,,,,,,
,,652414a8df1d3adfddec9600,65af55c14abd09284145a175,2024-01-23_24h00.00.254,bars,2023.2.3,Win32,138.8888889,657b66ea316d21385b68909f,,,,,,,,,,,234.3705,235.3654,,,235.8603,236.107,,4,4,,,,,,,,,,,,,,,,bars/040.png,bars/mask004.png,,,,,,,,,,,,8,2,,,,,,,8,10,10,8,,,,,,,,,,,235.3654,235.8603,236.107,238.4641,space,2.3496,,238.4641,44,1,239.4647,239.4647,239.8708,space,0.3951,,0,12,12,12,1,140,5,,,,,,,,
,,652414a8df1d3adfddec9600,65af55c14abd09284145a175,2024-01-23_24h00.00.254,bars,2023.2.3,Win32,138.8888889,657b66ea316d21385b68909f,,,,,,,,,,,239.871,240.8674,,,241.3687,241.6157,,78,78,,,,,,,,,,,,,,,,bars/046.png,bars/mask008.png,,,,,,,,,,,,6,2,,,,,,,10,10,10,8,,,,,,,,,,,240.8674,241.3687,241.6158,244.3214,space,2.6933,,244.3215,77,7,245.3228,245.3228,245.7704,space,0.4364,,0,13,13,13,1,155,85,,,,,,,,
,,652414a8df1d3adfddec9600,65af55c14abd09284145a175,2024-01-23_24h00.00.254,bars,2023.2.3,Win32,138.8888889,657b66ea316d21385b68909f,,,,,,,,,,,245.7706,246.7719,,,247.2739,247.5192,,64,64,,,,,,,,,,,,,,,,bars/041.png,bars/mask000.png,,,,,,,,,,,,2,2,,,,,,,8,8,7,8,,,,,,,,,,,246.7719,247.2739,247.5192,250.215,space,2.6839,,250.215,44,21,251.2124,251.2124,251.6101,space,0.3841,,0,14,14,14,1,20,85,,,,,,,,
,,652414a8df1d3adfddec9600,65af55c14abd09284145a175,2024-01-23_24h00.00.254,bars,2023.2.3,Win32,138.8888889,657b66ea316d21385b68909f,,,,,,,,,,,251.6103,252.6054,,,253.1059,253.3529,,154,-26,,,,,,,,,,,,,,,,bars/000.png,bars/mask009.png,,,,,,,,,,,,4,2,,,,,,,6,6,7,6,,,,,,,,,,,252.6055,253.1059,253.3529,255.8719,space,2.5114,,255.8719,66,9,256.8661,256.8661,257.2014,space,0.3241,,0,15,15,15,1,40,145,,,,,,,,
,,652414a8df1d3adfddec9600,65af55c14abd09284145a175,2024-01-23_24h00.00.254,bars,2023.2.3,Win32,138.8888889,657b66ea316d21385b68909f,,,,,,,,,,,257.2016,258.2009,,,258.6964,258.9409,,62,62,,,,,,,,,,,,,,,,bars/034.png,bars/mask007.png,,,,,,,,,,,,2,2,,,,,,,8,4,7,2,,,,,,,,,,,258.2009,258.6963,258.9409,259.6172,space,0.6678,,259.6172,63,3,260.6132,260.6132,261.1327,space,0.5114,,0,16,16,16,1,125,65,,,,,,,,
,,652414a8df1d3adfddec9600,65af55c14abd09284145a175,2024-01-23_24h00.00.254,bars,2023.2.3,Win32,138.8888889,657b66ea316d21385b68909f,,,,,,,,,,,261.1328,262.1318,,,262.6322,262.8792,,0,180,,,,,,,,,,,,,,,,bars/007.png,bars/mask004.png,,,,,,,,,,,,8,1,,,,,,,10,2,9,2,,,,,,,,,,,262.1318,262.6322,262.8792,264.7489,space,1.8617,,264.7489,5,55,265.7437,265.7437,266.5427,space,0.7878,,0,17,17,17,1,175,55,,,,,,,,
,,652414a8df1d3adfddec9600,65af55c14abd09284145a175,2024-01-23_24h00.00.254,bars,2023.2.3,Win32,138.8888889,657b66ea316d21385b68909f,,,,,,,,,,,266.5429,267.5445,,,268.0403,268.2878,,43,43,,,,,,,,,,,,,,,,bars/035.png,bars/mask009.png,,,,,,,,,,,,0,2,,,,,,,8,0,6,0,,,,,,,,,,,267.5446,268.0403,268.2878,269.7042,space,1.4079,,269.7042,48,17,270.7057,270.7058,273.1348,space,2.4207,,0,18,18,18,1,175,60,,,,,,,,
,,652414a8df1d3adfddec9600,65af55c14abd09284145a175,2024-01-23_24h00.00.254,bars,2023.2.3,Win32,138.8888889,657b66ea316d21385b68909f,,,,,,,,,,,273.1349,274.1357,,,274.6313,274.8774,,115,-65,,,,,,,,,,,,,,,,bars/006.png,bars/mask005.png,,,,,,,,,,,,1,2,,,,,,,10,0,10,2,,,,,,,,,,,274.1357,274.6313,274.8775,278.3434,space,3.4574,,278.3434,80,15,279.3377,279.3377,283.1381,space,3.7878,,0,19,19,19,1,35,100,,,,,,,,
,,652414a8df1d3adfddec9600,65af55c14abd09284145a175,2024-01-23_24h00.00.254,bars,2023.2.3,Win32,138.8888889,657b66ea316d21385b68909f,,,,,,,,,,,283.1383,284.1333,,,284.6343,284.8812,,148,148,,,,,,,,,,,,,,,,bars/048.png,bars/mask001.png,,,,,,,,,,,,0,2,,,,,,,10,0,10,0,,,,,,,,,,,284.1333,284.6343,284.8812,287.5935,space,2.7031,,287.5935,82,27,288.5947,288.5947,289.5331,space,0.9249,,0,20,20,20,1,50,175,,,,,,,,
,,652414a8df1d3adfddec9600,65af55c14abd09284145a175,2024-01-23_24h00.00.254,bars,2023.2.3,Win32,138.8888889,657b66ea316d21385b68909f,,,,,,,,,,,289.5333,290.5355,,,291.0361,291.283,,76,76,,,,,,,,,,,,,,,,bars/006.png,bars/mask003.png,,,,,,,,,,,,0,2,,,,,,,8,0,5,0,,,,,,,,,,,290.5355,291.036,291.283,293.8468,space,2.5529,,293.8469,41,24,294.8494,294.8494,295.3174,space,0.4553,,0,21,21,21,1,35,100,,,,,,,,
,,652414a8df1d3adfddec9600,65af55c14abd09284145a175,2024-01-23_24h00.00.254,bars,2023.2.3,Win32,138.8888889,657b66ea316d21385b68909f,,,,,,,,,,,295.3176,296.3133,,,296.815,297.0618,,97,97,,,,,,,,,,,,,,,,bars/034.png,bars/mask001.png,,,,,,,,,,,,1,1,,,,,,,10,0,9,0,,,,,,,,,,,296.3134,296.815,297.0618,300.1953,space,3.1218,,300.1953,28,32,301.1965,301.1965,301.825,space,0.614,,0,22,22,22,1,125,65,,,,,,,,
,,652414a8df1d3adfddec9600,65af55c14abd09284145a175,2024-01-23_24h00.00.254,bars,2023.2.3,Win32,138.8888889,657b66ea316d21385b68909f,,,,,,,,,,,301.8252,302.8257,,,303.3265,303.5734,,52,232,,,,,,,,,,,,,,,,bars/030.png,bars/mask007.png,,,,,,,,,,,,1,2,,,,,,,10,2,9,1,,,,,,,,,,,302.8257,303.3264,303.5734,307.1983,space,3.6189,,307.1984,88,13,308.1929,308.1929,308.638,space,0.4331,,0,23,23,23,1,140,65,,,,,,,,
,,652414a8df1d3adfddec9600,65af55c14abd09284145a175,2024-01-23_24h00.00.254,bars,2023.2.3,Win32,138.8888889,657b66ea316d21385b68909f,,,,,,,,,,,308.6381,309.6398,,,310.14,310.3869,,110,110,,,,,,,,,,,,,,,,bars/001.png,bars/mask001.png,,,,,,,,,,,,3,1,,,,,,,8,0,8,0,,,,,,,,,,,309.6398,310.14,310.3869,311.8984,space,1.5031,,311.8984,20,25,312.8997,312.8997,313.4254,space,0.5161,,0,24,24,24,1,130,85,,,,,,,,
,,652414a8df1d3adfddec9600,65af55c14abd09284145a175,2024-01-23_24h00.00.254,bars,2023.2.3,Win32,138.8888889,657b66ea316d21385b68909f,,,,,,,,,,,313.4257,314.4263,,,314.9272,315.174,,65,65,,,,,,,,,,,,,,,,bars/034.png,bars/mask009.png,,,,,,,,,,,,0,2,,,,,,,6,0,4,0,,,,,,,,,,,314.4263,314.9272,315.1741,317.9889,space,2.8084,,317.9889,60,0,318.9836,318.9836,325.4425,space,6.4461,,0,25,25,25,1,125,65,,,,,,,,
,,652414a8df1d3adfddec9600,65af55c14abd09284145a175,2024-01-23_24h00.00.254,bars,2023.2.3,Win32,138.8888889,657b66ea316d21385b68909f,,,,,,,,,,,325.4466,326.4454,,,326.9472,327.1938,,42,42,,,,,,,,,,,,,,,,bars/004.png,bars/mask003.png,,,,,,,,,,,,1,1,,,,,,,4,2,3,1,,,,,,,,,,,326.4454,326.9471,327.1938,330.0204,space,2.8207,,330.0204,17,83,331.0173,331.0174,331.8141,space,0.7831,,0,26,26,26,1,25,125,,,,,,,,
,,652414a8df1d3adfddec9600,65af55c14abd09284145a175,2024-01-23_24h00.00.254,bars,2023.2.3,Win32,138.8888889,657b66ea316d21385b68909f,,,,,,,,,,,331.8143,332.8129,,,333.3148,333.5611,,177,-3,,,,,,,,,,,,,,,,bars/039.png,bars/mask006.png,,,,,,,,,,,,2,1,,,,,,,2,0,2,0,,,,,,,,,,,332.813,333.3148,333.5612,335.0489,space,1.4794,,335.049,2,72,336.0451,336.0452,336.7173,space,0.6612,,0,27,27,27,1,175,105,,,,,,,,
,,652414a8df1d3adfddec9600,65af55c14abd09284145a175,2024-01-23_24h00.00.254,bars,2023.2.3,Win32,138.8888889,657b66ea316d21385b68909f,,,,,,,,,,,336.7175,337.7188,,,338.2194,338.4657,,17,197,,,,,,,,,,,,,,,,bars/023.png,bars/mask000.png,,,,,,,,,,,,1,1,,,,,,,0,2,1,1,,,,,,,,,,,337.7188,338.2194,338.4658,340.8151,space,2.3409,,340.8152,3,82,341.8119,341.8119,342.0831,space,0.2558,,0,28,28,28,1,20,115,,,,,,,,
,,652414a8df1d3adfddec9600,65af55c14abd09284145a175,2024-01-23_24h00.00.254,bars,2023.2.3,Win32,138.8888889,657b66ea316d21385b68909f,,,,,,,,,,,342.0832,343.0848,,,343.5856,343.8309,,129,129,,,,,,,,,,,,,,,,bars/004.png,bars/mask008.png,,,,,,,,,,,,0,2,,,,,,,2,0,3,0,,,,,,,,,,,343.0848,343.5856,343.8309,346.9788,space,3.1398,,346.9788,76,4,347.9728,347.9728,351.7591,space,3.7745,,0,29,29,29,1,25,125,,,,,,,,
,,652414a8df1d3adfddec9600,65af55c14abd09284145a175,2024-01-23_24h00.00.254,bars,2023.2.3,Win32,138.8888889,657b66ea316d21385b68909f,,,,,,,,,,,351.7629,352.7587,,,353.2575,353.5038,,146,146,,,,,,,,,,,,,,,,bars/045.png,bars/mask008.png,,,,,,,,,,,,0,2,,,,,,,4,2,3,1,,,,,,,,,,,352.7587,353.2575,353.5038,355.3123,space,1.8004,,355.3123,46,44,356.3075,356.3075,357.3155,space,0.9936,,0,30,30,30,1,100,10,,,,,,,,
,,652414a8df1d3adfddec9600,65af55c14abd09284145a175,2024-01-23_24h00.00.254,bars,2023.2.3,Win32,138.8888889,657b66ea316d21385b68909f,,,,,,,,,,,357.3156,358.3104,,,358.8118,359.0582,,24,204,,,,,,,,,,,,,,,,bars/045.png,bars/mask004.png,,,,,,,,,,,,3,2,,,,,,,2,4,4,5,,,,,,,,,,,358.3104,358.8117,359.0583,363.2598,space,4.1924,,363.2598,76,14,364.2558,364.2559,365.2746,space,1.0065,,0,31,31,31,1,100,10,,,,,,,,
,,652414a8df1d3adfddec9600,65af55c14abd09284145a175,2024-01-23_24h00.00.254,bars,2023.2.3,Win32,138.8888889,657b66ea316d21385b68909f,,,,,,,,,,,365.2749,366.275,,,366.7757,367.0231,,15,15,,,,,,,,,,,,,,,,bars/025.png,bars/mask008.png,,,,,,,,,,,,1,2,,,,,,,0,6,1,5,,,,,,,,,,,366.275,366.7756,367.0232,369.099,space,2.0698,,369.099,90,25,370.0931,370.0931,370.4675,space,0.3594,,0,32,32,32,1,105,40,,,,,,,,
,,652414a8df1d3adfddec9600,65af55c14abd09284145a175,2024-01-23_24h00.00.254,bars,2023.2.3,Win32,138.8888889,657b66ea316d21385b68909f,,,,,,,,,,,370.4675,371.4689,,,371.9706,372.2175,,97,97,,,,,,,,,,,,,,,,bars/037.png,bars/mask000.png,,,,,,,,,,,,6,2,,,,,,,0,8,0,8,,,,,,,,,,,371.469,371.9706,372.2175,373.7289,space,1.5061,,373.7289,53,8,374.731,374.7311,375.2337,space,0.4908,,0,33,33,33,1,150,105,,,,,,,,
,,652414a8df1d3adfddec9600,65af55c14abd09284145a175,2024-01-23_24h00.00.254,bars,2023.2.3,Win32,138.8888889,657b66ea316d21385b68909f,,,,,,,,,,,375.2339,376.2288,,,376.7307,376.9759,,2,2,,,,,,,,,,,,,,,,bars/040.png,bars/mask006.png,,,,,,,,,,,,5,2,,,,,,,0,6,0,6,,,,,,,,,,,376.2288,376.7306,376.9759,377.5818,space,0.5951,,377.5818,42,3,378.5828,378.5828,379.1082,space,0.5186,,0,34,34,34,1,140,5,,,,,,,,
,,652414a8df1d3adfddec9600,65af55c14abd09284145a175,2024-01-23_24h00.00.254,bars,2023.2.3,Win32,138.8888889,657b66ea316d21385b68909f,,,,,,,,,,,379.1084,380.1093,,,380.6101,380.856,,59,59,,,,,,,,,,,,,,,,bars/025.png,bars/mask007.png,,,,,,,,,,,,3,2,,,,,,,0,8,0,7,,,,,,,,,,,380.1094,380.6101,380.856,383.3315,space,2.4647,,383.3316,46,19,384.3258,384.3259,384.6921,space,0.351,,0,35,35,35,1,105,40,,,,,,,,
,,652414a8df1d3adfddec9600,65af55c14abd09284145a175,2024-01-23_24h00.00.254,bars,2023.2.3,Win32,138.8888889,657b66ea316d21385b68909f,,,,,,,,,,,384.6923,385.6935,,,386.1949,386.4402,,64,64,,,,,,,,,,,,,,,,bars/029.png,bars/mask000.png,,,,,,,,,,,,2,2,,,,,,,2,6,2,6,,,,,,,,,,,385.6935,386.1949,386.4402,388.3016,space,1.8521,,388.3016,26,19,389.2972,389.2972,391.5101,space,2.2061,,0,36,36,36,1,90,45,,,,,,,,
,,652414a8df1d3adfddec9600,65af55c14abd09284145a175,2024-01-23_24h00.00.254,bars,2023.2.3,Win32,138.8888889,657b66ea316d21385b68909f,,,,,,,,,,,391.5102,392.5118,,,393.0136,393.2604,,44,224,,,,,,,,,,,,,,,,bars/029.png,bars/mask007.png,,,,,,,,,,,,7,2,,,,,,,0,8,1,7,,,,,,,,,,,392.5118,393.0136,393.2604,398.0017,space,4.7287,,398.0018,46,1,399.0021,399.0021,399.5279,space,0.5143,,0,37,37,37,1,90,45,,,,,,,,
,,652414a8df1d3adfddec9600,65af55c14abd09284145a175,2024-01-23_24h00.00.254,bars,2023.2.3,Win32,138.8888889,657b66ea316d21385b68909f,,,,,,,,,,,399.528,400.5299,,,401.0305,401.2771,,145,-35,,,,,,,,,,,,,,,,bars/005.png,bars/mask001.png,,,,,,,,,,,,8,2,,,,,,,2,10,5,9,,,,,,,,,,,400.5299,401.0305,401.2772,404.1,space,2.8122,,404.1,45,5,405.0942,405.0942,405.6364,space,0.5298,,0,38,38,38,1,10,140,,,,,,,,
,,652414a8df1d3adfddec9600,65af55c14abd09284145a175,2024-01-23_24h00.00.254,bars,2023.2.3,Win32,138.8888889,657b66ea316d21385b68909f,,,,,,,,,,,405.6366,406.6316,,,407.129,407.3786,,169,169,,,,,,,,,,,,,,,,bars/016.png,bars/mask001.png,,,,,,,,,,,,9,2,,,,,,,0,10,0,10,,,,,,,,,,,406.6316,407.129,407.3786,409.3461,space,1.9619,,409.3461,51,4,410.3398,410.3399,411.0102,space,0.6582,,0,39,39,39,1,40,165,,,,,,,,
,,652414a8df1d3adfddec9600,65af55c14abd09284145a175,2024-01-23_24h00.00.254,bars,2023.2.3,Win32,138.8888889,657b66ea316d21385b68909f,,,,,,,,,,,411.0103,412.0053,,,412.5008,412.745,,65,65,,,,,,,,,,,,,,,,bars/025.png,bars/mask003.png,,,,,,,,,,,,2,2,,,,,,,2,10,3,10,,,,,,,,,,,412.0053,412.5007,412.745,416.2025,space,3.4445,,416.2025,40,25,417.1994,417.1994,417.8859,space,0.6768,,0,40,40,40,1,105,40,,,,,,,,
,,652414a8df1d3adfddec9600,65af55c14abd09284145a175,2024-01-23_24h00.00.254,bars,2023.2.3,Win32,138.8888889,657b66ea316d21385b68909f,,,,,,,,,,,417.8861,418.8876,,,419.3861,419.636,,54,54,,,,,,,,,,,,,,,,bars/007.png,bars/mask000.png,,,,,,,,,,,,10,2,,,,,,,4,10,6,10,,,,,,,,,,,418.8876,419.3861,419.636,422.5557,space,2.9116,,422.5559,59,1,423.5546,423.5547,426.5036,space,2.9348,,0,41,41,41,1,175,55,,,,,,,,
,,652414a8df1d3adfddec9600,65af55c14abd09284145a175,2024-01-23_24h00.00.254,bars,2023.2.3,Win32,138.8888889,657b66ea316d21385b68909f,,,,,,,,,,,426.5038,427.5036,,,428.0033,428.2546,,13,193,,,,,,,,,,,,,,,,bars/040.png,bars/mask006.png,,,,,,,,,,,,7,2,,,,,,,2,10,2,10,,,,,,,,,,,427.5036,428.0033,428.2547,432.7516,space,4.4919,,432.7517,53,8,433.7515,433.7515,434.2598,space,0.4976,,0,42,42,42,1,140,5,,,,,,,,
,,652414a8df1d3adfddec9600,65af55c14abd09284145a175,2024-01-23_24h00.00.254,bars,2023.2.3,Win32,138.8888889,657b66ea316d21385b68909f,,,,,,,,,,,434.2599,435.2611,,,435.7581,436.0066,,106,106,,,,,,,,,,,,,,,,bars/011.png,bars/mask004.png,,,,,,,,,,,,3,2,,,,,,,4,10,4,9,,,,,,,,,,,435.2612,435.7581,436.0066,438.398,space,2.3787,,438.398,54,21,439.3927,439.3928,439.9813,space,0.5774,,0,43,43,43,1,160,85,,,,,,,,
,,652414a8df1d3adfddec9600,65af55c14abd09284145a175,2024-01-23_24h00.00.254,bars,2023.2.3,Win32,138.8888889,657b66ea316d21385b68909f,,,,,,,,,,,439.9815,440.9775,,,441.4792,441.7257,,122,122,,,,,,,,,,,,,,,,bars/037.png,bars/mask003.png,,,,,,,,,,,,3,2,,,,,,,6,8,7,8,,,,,,,,,,,440.9776,441.4792,441.7258,443.1655,space,1.4309,,443.1655,28,17,444.1607,444.1607,444.6557,space,0.4831,,0,44,44,44,1,150,105,,,,,,,,
,,652414a8df1d3adfddec9600,65af55c14abd09284145a175,2024-01-23_24h00.00.254,bars,2023.2.3,Win32,138.8888889,657b66ea316d21385b68909f,,,,,,,,,,,444.6558,445.6516,,,446.1466,446.3912,,44,44,,,,,,,,,,,,,,,,bars/031.png,bars/mask005.png,,,,,,,,,,,,7,2,,,,,,,4,10,2,10,,,,,,,,,,,445.6517,446.1466,446.3913,448.4578,space,2.0582,,448.4579,76,9,449.4534,449.4534,449.7612,space,0.2964,,0,45,45,45,1,120,35,,,,,,,,
,,652414a8df1d3adfddec9600,65af55c14abd09284145a175,2024-01-23_24h00.00.254,bars,2023.2.3,Win32,138.8888889,657b66ea316d21385b68909f,,,,,,,,,,,449.7614,450.7566,,,451.2508,451.4961,,160,-20,,,,,,,,,,,,,,,,bars/013.png,bars/mask009.png,,,,,,,,,,,,0,2,,,,,,,2,8,2,6,,,,,,,,,,,450.7567,451.2507,451.4961,455.2083,space,3.7043,,455.2084,85,30,456.205,456.205,456.7107,space,0.495,,0,46,46,46,1,75,10,,,,,,,,
,,652414a8df1d3adfddec9600,65af55c14abd09284145a175,2024-01-23_24h00.00.254,bars,2023.2.3,Win32,138.8888889,657b66ea316d21385b68909f,,,,,,,,,,,456.7108,457.7088,,,458.2031,458.4503,,73,73,,,,,,,,,,,,,,,,bars/028.png,bars/mask009.png,,,,,,,,,,,,0,1,,,,,,,4,6,4,7,,,,,,,,,,,457.7088,458.2031,458.4503,459.0412,space,0.5813,,459.0412,28,47,460.0365,460.0365,460.5867,space,0.5393,,0,47,47,47,1,45,120,,,,,,,,
,,652414a8df1d3adfddec9600,65af55c14abd09284145a175,2024-01-23_24h00.00.254,bars,2023.2.3,Win32,138.8888889,657b66ea316d21385b68909f,,,,,,,,,,,460.5869,461.5881,,,462.0901,462.3365,,48,48,,,,,,,,,,,,,,,,bars/013.png,bars/mask000.png,,,,,,,,,,,,0,1,,,,,,,2,8,2,7,,,,,,,,,,,461.5881,462.0901,462.3365,463.3691,space,1.0222,,463.3691,27,38,464.3653,464.3653,465.8218,space,1.4472,,0,48,48,48,1,75,10,,,,,,,,
,,652414a8df1d3adfddec9600,65af55c14abd09284145a175,2024-01-23_24h00.00.254,bars,2023.2.3,Win32,138.8888889,657b66ea316d21385b68909f,,,,,,,,,,,465.822,466.8228,,,467.3245,467.5714,,108,108,,,,,,,,,,,,,,,,bars/023.png,bars/mask005.png,,,,,,,,,,,,8,2,,,,,,,0,10,0,10,,,,,,,,,,,466.8228,467.3245,467.5714,469.4831,space,1.9018,,469.4831,88,7,470.4785,470.4785,471.1168,space,0.6263,,0,49,49,49,1,20,115,,,,,,,,
,,652414a8df1d3adfddec9600,65af55c14abd09284145a175,2024-01-23_24h00.00.254,bars,2023.2.3,Win32,138.8888889,657b66ea316d21385b68909f,,,,,,,,,,,,,,,,,,,,,,,,,,,,,,,,,,,,,,,,,,,,,,,,,,,,,,,,,,,,,,,,,,,,,,,,,,,,,,,,,,,,,,,,,,,,,471.1172,531.1111,0,0,0,3,1,sequence_tables/blk026.csv
,,652414a8df1d3adfddec9600,65af55c14abd09284145a175,2024-01-23_24h00.00.254,bars,2023.2.3,Win32,138.8888889,657b66ea316d21385b68909f,,,,,,,,,,,547.5057,548.5823,,,549.0088,549.2562,,100,100,,,,,,,,,,,,,,,,bars/018.png,bars/mask005.png,,,,,,,,,,,,5,2,,,,,,,9,7,10,7,,,,,,531.1161,547.4992,space,16.3624,,548.5823,549.0088,549.2562,551.2614,space,1.9765,,551.2614,50,10,552.268,552.268,552.2719,,,,0,0,0,0,1,150,90,,,,,,,,
,,652414a8df1d3adfddec9600,65af55c14abd09284145a175,2024-01-23_24h00.00.254,bars,2023.2.3,Win32,138.8888889,657b66ea316d21385b68909f,,,,,,,,,,,552.2719,553.2525,,,553.7368,553.9833,,69,69,,,,,,,,,,,,,,,,bars/038.png,bars/mask001.png,,,,,,,,,,,,4,2,,,,,,,7,5,7,4,,,,,,,,,,,553.2525,553.7368,553.9833,557.7692,space,3.7655,,557.7692,84,1,558.7629,558.7629,558.7675,,,,0,1,1,1,1,165,70,,,,,,,,
,,652414a8df1d3adfddec9600,65af55c14abd09284145a175,2024-01-23_24h00.00.254,bars,2023.2.3,Win32,138.8888889,657b66ea316d21385b68909f,,,,,,,,,,,558.7677,559.7629,,,560.2531,560.502,,94,94,,,,,,,,,,,,,,,,bars/002.png,bars/mask001.png,,,,,,,,,,,,5,2,,,,,,,5,7,3,7,,,,,,,,,,,559.7629,560.2531,560.502,563.9922,space,3.476,,563.9922,36,9,564.9757,564.9757,564.9798,,,,0,2,2,2,1,130,85,,,,,,,,
,,652414a8df1d3adfddec9600,65af55c14abd09284145a175,2024-01-23_24h00.00.254,bars,2023.2.3,Win32,138.8888889,657b66ea316d21385b68909f,,,,,,,,,,,564.9799,565.9719,,,566.4773,566.7279,,72,72,,,,,,,,,,,,,,,,bars/046.png,bars/mask004.png,,,,,,,,,,,,3,2,,,,,,,7,5,6,6,,,,,,,,,,,565.9719,566.4772,566.7279,569.1323,space,2.3899,,569.1324,83,13,570.1415,570.1416,570.1457,,,,0,3,3,3,1,155,85,,,,,,,,
,,652414a8df1d3adfddec9600,65af55c14abd09284145a175,2024-01-23_24h00.00.254,bars,2023.2.3,Win32,138.8888889,657b66ea316d21385b68909f,,,,,,,,,,,570.1458,571.1503,,,571.655,571.905,,170,170,,,,,,,,,,,,,,,,bars/033.png,bars/mask009.png,,,,,,,,,,,,4,2,,,,,,,9,7,9,7,,,,,,,,,,,571.1503,571.655,571.9051,575.419,space,3.4893,,575.419,35,15,576.4192,576.4193,576.4234,,,,0,4,4,4,1,25,155,,,,,,,,
,,652414a8df1d3adfddec9600,65af55c14abd09284145a175,2024-01-23_24h00.00.254,bars,2023.2.3,Win32,138.8888889,657b66ea316d21385b68909f,,,,,,,,,,,576.4235,577.4207,,,577.9173,578.1612,,78,78,,,,,,,,,,,,,,,,bars/007.png,bars/mask002.png,,,,,,,,,,,,1,2,,,,,,,7,5,6,5,,,,,,,,,,,577.4208,577.9172,578.1612,581.1319,space,2.9543,,581.1319,83,23,582.1438,582.1439,582.1484,,,,0,5,5,5,1,175,55,,,,,,,,
,,652414a8df1d3adfddec9600,65af55c14abd09284145a175,2024-01-23_24h00.00.254,bars,2023.2.3,Win32,138.8888889,657b66ea316d21385b68909f,,,,,,,,,,,582.1485,583.1444,,,583.6433,583.8886,,117,117,,,,,,,,,,,,,,,,bars/018.png,bars/mask008.png,,,,,,,,,,,,0,2,,,,,,,5,3,5,3,,,,,,,,,,,583.1444,583.6433,583.8886,588.1721,space,4.2709,,588.1721,33,27,589.1633,589.1633,589.1677,,,,0,6,6,6,1,150,90,,,,,,,,
,,652414a8df1d3adfddec9600,65af55c14abd09284145a175,2024-01-23_24h00.00.254,bars,2023.2.3,Win32,138.8888889,657b66ea316d21385b68909f,,,,,,,,,,,589.1678,590.1586,,,590.6527,590.8915,,75,75,,,,,,,,,,,,,,,,bars/042.png,bars/mask006.png,,,,,,,,,,,,2,2,,,,,,,7,1,7,2,,,,,,,,,,,590.1586,590.6527,590.8916,591.799,space,0.8828,,591.799,70,0,592.7967,592.7967,592.7973,,,,0,7,7,7,1,145,75,,,,,,,,
,,652414a8df1d3adfddec9600,65af55c14abd09284145a175,2024-01-23_24h00.00.254,bars,2023.2.3,Win32,138.8888889,657b66ea316d21385b68909f,,,,,,,,,,,592.7974,593.7964,,,594.2945,594.5295,,35,35,,,,,,,,,,,,,,,,bars/013.png,bars/mask000.png,,,,,,,,,,,,0,2,,,,,,,9,3,9,3,,,,,,,,,,,593.7964,594.2945,594.5295,596.5018,space,1.9643,,596.5018,40,25,597.4923,597.4924,597.4929,,,,0,8,8,8,1,75,10,,,,,,,,
,,652414a8df1d3adfddec9600,65af55c14abd09284145a175,2024-01-23_24h00.00.254,bars,2023.2.3,Win32,138.8888889,657b66ea316d21385b68909f,,,,,,,,,,,597.4929,598.4931,,,598.9848,599.2492,,13,13,,,,,,,,,,,,,,,,bars/040.png,bars/mask007.png,,,,,,,,,,,,6,2,,,,,,,10,5,10,8,,,,,,,,,,,598.4931,598.9847,599.2492,603.0463,space,3.7849,,603.0463,53,8,604.0462,604.0463,604.051,,,,0,9,9,9,1,140,5,,,,,,,,
,,652414a8df1d3adfddec9600,65af55c14abd09284145a175,2024-01-23_24h00.00.254,bars,2023.2.3,Win32,138.8888889,657b66ea316d21385b68909f,,,,,,,,,,,604.0511,605.0531,,,605.5655,605.8139,,47,227,,,,,,,,,,,,,,,,bars/035.png,bars/mask000.png,,,,,,,,,,,,3,2,,,,,,,8,7,7,5,,,,,,,,,,,605.0531,605.5654,605.8139,608.379,space,2.549,,608.379,52,13,609.3856,609.3856,609.3902,,,,0,10,10,10,1,175,60,,,,,,,,
,,652414a8df1d3adfddec9600,65af55c14abd09284145a175,2024-01-23_24h00.00.254,bars,2023.2.3,Win32,138.8888889,657b66ea316d21385b68909f,,,,,,,,,,,609.3903,610.3896,,,610.8848,611.1295,,95,95,,,,,,,,,,,,,,,,bars/039.png,bars/mask002.png,,,,,,,,,,,,3,2,,,,,,,10,5,10,5,,,,,,,,,,,610.3896,610.8848,611.1296,614.2321,space,3.0826,,614.2321,80,10,615.2317,615.2317,615.2367,,,,0,11,11,11,1,175,105,,,,,,,,
,,652414a8df1d3adfddec9600,65af55c14abd09284145a175,2024-01-23_24h00.00.254,bars,2023.2.3,Win32,138.8888889,657b66ea316d21385b68909f,,,,,,,,,,,615.2367,616.2446,,,616.7379,616.9864,,25,205,,,,,,,,,,,,,,,,bars/016.png,bars/mask006.png,,,,,,,,,,,,4,1,,,,,,,10,3,8,2,,,,,,,,,,,616.2446,616.7378,616.9864,619.4828,space,2.4805,,619.4828,15,40,620.4766,620.4766,620.4817,,,,0,12,12,12,1,40,165,,,,,,,,
,,652414a8df1d3adfddec9600,65af55c14abd09284145a175,2024-01-23_24h00.00.254,bars,2023.2.3,Win32,138.8888889,657b66ea316d21385b68909f,,,,,,,,,,,620.4819,621.4756,,,621.9765,622.2252,,140,140,,,,,,,,,,,,,,,,bars/043.png,bars/mask000.png,,,,,,,,,,,,3,2,,,,,,,8,5,7,5,,,,,,,,,,,621.4756,621.9765,622.2252,626.6193,space,4.3671,,626.6193,70,10,627.6166,627.6166,627.6215,,,,0,13,13,13,1,30,130,,,,,,,,
,,652414a8df1d3adfddec9600,65af55c14abd09284145a175,2024-01-23_24h00.00.254,bars,2023.2.3,Win32,138.8888889,657b66ea316d21385b68909f,,,,,,,,,,,627.6216,628.6309,,,629.1204,629.3768,,52,232,,,,,,,,,,,,,,,,bars/035.png,bars/mask006.png,,,,,,,,,,,,4,2,,,,,,,10,7,9,6,,,,,,,,,,,628.6309,629.1204,629.3768,633.045,space,3.6587,,633.0451,57,8,634.0439,634.044,634.0485,,,,0,14,14,14,1,175,60,,,,,,,,
,,652414a8df1d3adfddec9600,65af55c14abd09284145a175,2024-01-23_24h00.00.254,bars,2023.2.3,Win32,138.8888889,657b66ea316d21385b68909f,,,,,,,,,,,634.0485,635.0553,,,635.5526,635.8027,,163,163,,,,,,,,,,,,,,,,bars/016.png,bars/mask000.png,,,,,,,,,,,,9,2,,,,,,,8,9,9,10,,,,,,,,,,,635.0553,635.5526,635.8027,636.5188,space,0.7094,,636.5188,57,2,637.5195,637.5196,637.5201,,,,0,15,15,15,1,40,165,,,,,,,,
,,652414a8df1d3adfddec9600,65af55c14abd09284145a175,2024-01-23_24h00.00.254,bars,2023.2.3,Win32,138.8888889,657b66ea316d21385b68909f,,,,,,,,,,,637.5201,638.519,,,639.0141,639.2594,,75,75,,,,,,,,,,,,,,,,bars/002.png,bars/mask004.png,,,,,,,,,,,,7,2,,,,,,,6,10,6,10,,,,,,,,,,,638.519,639.0141,639.2595,642.5513,space,3.2713,,642.5513,55,10,643.5459,643.5459,643.5501,,,,0,16,16,16,1,130,85,,,,,,,,
,,652414a8df1d3adfddec9600,65af55c14abd09284145a175,2024-01-23_24h00.00.254,bars,2023.2.3,Win32,138.8888889,657b66ea316d21385b68909f,,,,,,,,,,,643.5502,644.5437,,,645.0392,645.2791,,47,47,,,,,,,,,,,,,,,,bars/022.png,bars/mask000.png,,,,,,,,,,,,1,2,,,,,,,8,10,8,8,,,,,,,,,,,644.5437,645.0392,645.2791,648.7444,space,3.4454,,648.7444,48,27,649.7336,649.7336,649.7378,,,,0,17,17,17,1,95,20,,,,,,,,
,,652414a8df1d3adfddec9600,65af55c14abd09284145a175,2024-01-23_24h00.00.254,bars,2023.2.3,Win32,138.8888889,657b66ea316d21385b68909f,,,,,,,,,,,649.7378,650.7353,,,651.237,651.4814,,143,143,,,,,,,,,,,,,,,,bars/044.png,bars/mask006.png,,,,,,,,,,,,6,2,,,,,,,10,10,10,10,,,,,,,,,,,650.7354,651.237,651.4814,654.6418,space,3.1522,,654.6418,68,12,655.6467,655.6467,655.6507,,,,0,18,18,18,1,75,155,,,,,,,,
,,652414a8df1d3adfddec9600,65af55c14abd09284145a175,2024-01-23_24h00.00.254,bars,2023.2.3,Win32,138.8888889,657b66ea316d21385b68909f,,,,,,,,,,,655.6507,656.6357,,,657.1467,657.4068,,106,106,,,,,,,,,,,,,,,,bars/042.png,bars/mask002.png,,,,,,,,,,,,0,2,,,,,,,8,10,8,10,,,,,,,,,,,656.6358,657.1467,657.4069,661.134,space,3.719,,661.134,39,31,662.1253,662.1253,662.1298,,,,0,19,19,19,1,145,75,,,,,,,,
,,652414a8df1d3adfddec9600,65af55c14abd09284145a175,2024-01-23_24h00.00.254,bars,2023.2.3,Win32,138.8888889,657b66ea316d21385b68909f,,,,,,,,,,,662.1298,663.126,,,663.6327,663.8893,,170,-10,,,,,,,,,,,,,,,,bars/008.png,bars/mask008.png,,,,,,,,,,,,7,2,,,,,,,6,10,6,10,,,,,,,,,,,663.126,663.6327,663.8893,668.4197,space,4.5216,,668.4198,60,10,669.4171,669.4171,669.4222,,,,0,20,20,20,1,110,0,,,,,,,,
,,652414a8df1d3adfddec9600,65af55c14abd09284145a175,2024-01-23_24h00.00.254,bars,2023.2.3,Win32,138.8888889,657b66ea316d21385b68909f,,,,,,,,,,,669.4223,670.4239,,,670.9128,671.1794,,86,86,,,,,,,,,,,,,,,,bars/023.png,bars/mask003.png,,,,,,,,,,,,0,2,,,,,,,8,10,10,10,,,,,,,,,,,670.4239,670.9128,671.1794,672.9617,space,1.7599,,672.9617,66,29,673.9564,673.9565,673.9569,,,,0,21,21,21,1,20,115,,,,,,,,
,,652414a8df1d3adfddec9600,65af55c14abd09284145a175,2024-01-23_24h00.00.254,bars,2023.2.3,Win32,138.8888889,657b66ea316d21385b68909f,,,,,,,,,,,673.957,674.9421,,,675.4343,675.6734,,27,27,,,,,,,,,,,,,,,,bars/036.png,bars/mask000.png,,,,,,,,,,,,6,2,,,,,,,6,8,8,8,,,,,,,,,,,674.9421,675.4343,675.6734,677.2884,space,1.5989,,677.2884,62,7,678.2925,678.2926,678.2932,,,,0,22,22,22,1,145,20,,,,,,,,
,,652414a8df1d3adfddec9600,65af55c14abd09284145a175,2024-01-23_24h00.00.254,bars,2023.2.3,Win32,138.8888889,657b66ea316d21385b68909f,,,,,,,,,,,678.2935,679.288,,,679.7773,680.0292,,141,141,,,,,,,,,,,,,,,,bars/044.png,bars/mask002.png,,,,,,,,,,,,5,2,,,,,,,8,10,7,9,,,,,,,,,,,679.288,679.7773,680.0292,685.1583,space,5.1157,,685.1583,66,14,686.1624,686.1624,686.1669,,,,0,23,23,23,1,75,155,,,,,,,,
,,652414a8df1d3adfddec9600,65af55c14abd09284145a175,2024-01-23_24h00.00.254,bars,2023.2.3,Win32,138.8888889,657b66ea316d21385b68909f,,,,,,,,,,,686.167,687.1665,,,687.6653,687.9271,,55,55,,,,,,,,,,,,,,,,bars/017.png,bars/mask008.png,,,,,,,,,,,,7,2,,,,,,,6,10,7,10,,,,,,,,,,,687.1665,687.6652,687.9272,692.2861,space,4.3471,,692.2862,90,10,693.2844,693.2845,693.2891,,,,0,24,24,24,1,145,45,,,,,,,,
,,652414a8df1d3adfddec9600,65af55c14abd09284145a175,2024-01-23_24h00.00.254,bars,2023.2.3,Win32,138.8888889,657b66ea316d21385b68909f,,,,,,,,,,,693.2891,694.2966,,,694.7985,695.0481,,27,27,,,,,,,,,,,,,,,,bars/032.png,bars/mask009.png,,,,,,,,,,,,6,2,,,,,,,4,8,4,8,,,,,,,,,,,694.2966,694.7985,695.0481,697.4437,space,2.3786,,697.4438,82,7,698.44,698.4401,698.4407,,,,0,25,25,25,1,125,20,,,,,,,,
,,652414a8df1d3adfddec9600,65af55c14abd09284145a175,2024-01-23_24h00.00.254,bars,2023.2.3,Win32,138.8888889,657b66ea316d21385b68909f,,,,,,,,,,,698.4409,699.4407,,,699.9477,700.1871,,19,199,,,,,,,,,,,,,,,,bars/040.png,bars/mask004.png,,,,,,,,,,,,5,2,,,,,,,2,10,3,10,,,,,,,,,,,699.4407,699.9477,700.1871,702.7575,space,2.5558,,702.7576,59,14,703.7529,703.753,703.7573,,,,0,26,26,26,1,140,5,,,,,,,,
,,652414a8df1d3adfddec9600,65af55c14abd09284145a175,2024-01-23_24h00.00.254,bars,2023.2.3,Win32,138.8888889,657b66ea316d21385b68909f,,,,,,,,,,,703.7575,704.7521,,,705.2461,705.4934,,109,109,,,,,,,,,,,,,,,,bars/018.png,bars/mask007.png,,,,,,,,,,,,3,2,,,,,,,0,8,0,9,,,,,,,,,,,704.7522,705.2461,705.4934,707.1452,space,1.6425,,707.1452,41,19,708.1596,708.1597,708.1601,,,,0,27,27,27,1,150,90,,,,,,,,
,,652414a8df1d3adfddec9600,65af55c14abd09284145a175,2024-01-23_24h00.00.254,bars,2023.2.3,Win32,138.8888889,657b66ea316d21385b68909f,,,,,,,,,,,708.1601,709.1642,,,709.6623,709.9087,,83,83,,,,,,,,,,,,,,,,bars/007.png,bars/mask008.png,,,,,,,,,,,,1,2,,,,,,,0,10,0,10,,,,,,,,,,,709.1642,709.6623,709.9087,712.0711,space,2.1471,,712.0711,88,28,713.0637,713.0637,713.0677,,,,0,28,28,28,1,175,55,,,,,,,,
,,652414a8df1d3adfddec9600,65af55c14abd09284145a175,2024-01-23_24h00.00.254,bars,2023.2.3,Win32,138.8888889,657b66ea316d21385b68909f,,,,,,,,,,,713.0678,714.0712,,,714.5766,714.8235,,120,120,,,,,,,,,,,,,,,,bars/049.png,bars/mask009.png,,,,,,,,,,,,8,2,,,,,,,2,10,2,9,,,,,,,,,,,714.0712,714.5765,714.8235,716.7703,space,1.9258,,716.7703,40,5,717.7745,717.7745,717.7789,,,,0,29,29,29,1,160,115,,,,,,,,
,,652414a8df1d3adfddec9600,65af55c14abd09284145a175,2024-01-23_24h00.00.254,bars,2023.2.3,Win32,138.8888889,657b66ea316d21385b68909f,,,,,,,,,,,717.7791,718.7833,,,719.2761,719.5092,,172,-8,,,,,,,,,,,,,,,,bars/033.png,bars/mask005.png,,,,,,,,,,,,3,2,,,,,,,0,8,0,8,,,,,,,,,,,718.7833,719.2761,719.5092,721.1586,space,1.6434,,721.1586,33,17,722.154,722.154,722.1545,,,,0,30,30,30,1,25,155,,,,,,,,
,,652414a8df1d3adfddec9600,65af55c14abd09284145a175,2024-01-23_24h00.00.254,bars,2023.2.3,Win32,138.8888889,657b66ea316d21385b68909f,,,,,,,,,,,722.1545,723.1694,,,723.6619,723.9068,,57,237,,,,,,,,,,,,,,,,bars/025.png,bars/mask004.png,,,,,,,,,,,,4,2,,,,,,,2,10,3,9,,,,,,,,,,,723.1695,723.6618,723.9069,726.9216,space,3.0052,,726.9216,48,17,727.9144,727.9144,727.9187,,,,0,31,31,31,1,105,40,,,,,,,,
,,652414a8df1d3adfddec9600,65af55c14abd09284145a175,2024-01-23_24h00.00.254,bars,2023.2.3,Win32,138.8888889,657b66ea316d21385b68909f,,,,,,,,,,,727.9188,728.9121,,,729.4069,729.6663,,112,112,,,,,,,,,,,,,,,,bars/019.png,bars/mask005.png,,,,,,,,,,,,8,2,,,,,,,4,10,3,10,,,,,,,,,,,728.9121,729.4068,729.6664,730.3846,space,0.7094,,730.3847,67,7,731.3792,731.3792,731.3795,,,,0,32,32,32,1,45,105,,,,,,,,
,,652414a8df1d3adfddec9600,65af55c14abd09284145a175,2024-01-23_24h00.00.254,bars,2023.2.3,Win32,138.8888889,657b66ea316d21385b68909f,,,,,,,,,,,731.3796,732.3845,,,732.8851,733.1337,,158,158,,,,,,,,,,,,,,,,bars/044.png,bars/mask001.png,,,,,,,,,,,,9,2,,,,,,,2,10,4,10,,,,,,,,,,,732.3846,732.8851,733.1337,736.316,space,3.1714,,736.316,83,3,737.3136,737.3136,737.3181,,,,0,33,33,33,1,75,155,,,,,,,,
,,652414a8df1d3adfddec9600,65af55c14abd09284145a175,2024-01-23_24h00.00.254,bars,2023.2.3,Win32,138.8888889,657b66ea316d21385b68909f,,,,,,,,,,,737.3182,738.3222,,,738.8157,739.0581,,105,105,,,,,,,,,,,,,,,,bars/001.png,bars/mask008.png,,,,,,,,,,,,3,2,,,,,,,0,8,0,8,,,,,,,,,,,738.3222,738.8157,739.0581,742.4871,space,3.4176,,742.4871,25,20,743.4869,743.4869,743.4915,,,,0,34,34,34,1,130,85,,,,,,,,
,,652414a8df1d3adfddec9600,65af55c14abd09284145a175,2024-01-23_24h00.00.254,bars,2023.2.3,Win32,138.8888889,657b66ea316d21385b68909f,,,,,,,,,,,743.4917,744.4822,,,744.9792,745.2313,,59,59,,,,,,,,,,,,,,,,bars/025.png,bars/mask009.png,,,,,,,,,,,,2,2,,,,,,,2,6,2,6,,,,,,,,,,,744.4822,744.9791,745.2313,748.7705,space,3.5237,,748.7706,46,19,749.7658,749.7658,749.7703,,,,0,35,35,35,1,105,40,,,,,,,,
,,652414a8df1d3adfddec9600,65af55c14abd09284145a175,2024-01-23_24h00.00.254,bars,2023.2.3,Win32,138.8888889,657b66ea316d21385b68909f,,,,,,,,,,,749.7704,750.7694,,,751.2689,751.5206,,38,38,,,,,,,,,,,,,,,,bars/036.png,bars/mask006.png,,,,,,,,,,,,2,2,,,,,,,4,4,4,4,,,,,,,,,,,750.7694,751.2688,751.5206,754.7567,space,3.2288,,754.7567,73,18,755.748,755.748,755.7521,,,,0,36,36,36,1,145,20,,,,,,,,
,,652414a8df1d3adfddec9600,65af55c14abd09284145a175,2024-01-23_24h00.00.254,bars,2023.2.3,Win32,138.8888889,657b66ea316d21385b68909f,,,,,,,,,,,755.7522,756.7597,,,757.2466,757.496,,143,143,,,,,,,,,,,,,,,,bars/004.png,bars/mask001.png,,,,,,,,,,,,3,2,,,,,,,2,6,3,8,,,,,,,,,,,756.7597,757.2466,757.496,758.3502,space,0.8489,,758.3502,62,18,759.3493,759.3493,759.3499,,,,0,37,37,37,1,25,125,,,,,,,,
,,652414a8df1d3adfddec9600,65af55c14abd09284145a175,2024-01-23_24h00.00.254,bars,2023.2.3,Win32,138.8888889,657b66ea316d21385b68909f,,,,,,,,,,,759.3499,760.3371,,,760.8397,761.0926,,36,216,,,,,,,,,,,,,,,,bars/017.png,bars/mask008.png,,,,,,,,,,,,5,2,,,,,,,4,8,4,7,,,,,,,,,,,760.3371,760.8397,761.0926,764.5779,space,3.4683,,764.578,71,9,765.584,765.584,765.5883,,,,0,38,38,38,1,145,45,,,,,,,,
,,652414a8df1d3adfddec9600,65af55c14abd09284145a175,2024-01-23_24h00.00.254,bars,2023.2.3,Win32,138.8888889,657b66ea316d21385b68909f,,,,,,,,,,,765.5884,766.5832,,,767.0785,767.3352,,98,98,,,,,,,,,,,,,,,,bars/002.png,bars/mask002.png,,,,,,,,,,,,6,2,,,,,,,6,10,5,10,,,,,,,,,,,766.5833,767.0785,767.3352,769.9479,space,2.6079,,769.9479,32,13,770.9443,770.9443,770.9486,,,,0,39,39,39,1,130,85,,,,,,,,
,,652414a8df1d3adfddec9600,65af55c14abd09284145a175,2024-01-23_24h00.00.254,bars,2023.2.3,Win32,138.8888889,657b66ea316d21385b68909f,,,,,,,,,,,770.9487,771.9445,,,772.444,772.6894,,74,74,,,,,,,,,,,,,,,,bars/026.png,bars/mask004.png,,,,,,,,,,,,5,2,,,,,,,8,8,6,8,,,,,,,,,,,771.9445,772.444,772.6894,775.2119,space,2.4994,,775.2119,39,11,776.2092,776.2093,776.2137,,,,0,40,40,40,1,35,85,,,,,,,,
,,652414a8df1d3adfddec9600,65af55c14abd09284145a175,2024-01-23_24h00.00.254,bars,2023.2.3,Win32,138.8888889,657b66ea316d21385b68909f,,,,,,,,,,,776.2138,777.1995,,,777.7002,777.9455,,92,92,,,,,,,,,,,,,,,,bars/049.png,bars/mask008.png,,,,,,,,,,,,1,2,,,,,,,6,6,5,6,,,,,,,,,,,777.1995,777.7002,777.9455,781.9673,space,4.0151,,781.9673,68,23,782.9651,782.9651,782.9695,,,,0,41,41,41,1,160,115,,,,,,,,
,,652414a8df1d3adfddec9600,65af55c14abd09284145a175,2024-01-23_24h00.00.254,bars,2023.2.3,Win32,138.8888889,657b66ea316d21385b68909f,,,,,,,,,,,782.9696,783.9712,,,784.4663,784.724,,70,70,,,,,,,,,,,,,,,,bars/017.png,bars/mask008.png,,,,,,,,,,,,1,2,,,,,,,4,8,6,7,,,,,,,,,,,783.9712,784.4663,784.724,786.9736,space,2.2318,,786.9736,75,25,787.977,787.977,787.9811,,,,0,42,42,42,1,145,45,,,,,,,,
,,652414a8df1d3adfddec9600,65af55c14abd09284145a175,2024-01-23_24h00.00.254,bars,2023.2.3,Win32,138.8888889,657b66ea316d21385b68909f,,,,,,,,,,,787.9812,788.9783,,,789.4774,789.7257,,102,102,,,,,,,,,,,,,,,,bars/023.png,bars/mask001.png,,,,,,,,,,,,5,2,,,,,,,6,10,5,9,,,,,,,,,,,788.9784,789.4774,789.7257,793.9301,space,4.1956,,793.9301,82,13,794.9291,794.9292,794.9338,,,,0,43,43,43,1,20,115,,,,,,,,
,,652414a8df1d3adfddec9600,65af55c14abd09284145a175,2024-01-23_24h00.00.254,bars,2023.2.3,Win32,138.8888889,657b66ea316d21385b68909f,,,,,,,,,,,794.9338,795.9312,,,796.4319,796.6807,,151,151,,,,,,,,,,,,,,,,bars/016.png,bars/mask007.png,,,,,,,,,,,,3,2,,,,,,,4,8,4,6,,,,,,,,,,,795.9313,796.4319,796.6807,800.6578,space,3.9663,,800.6578,69,14,801.6602,801.6602,801.6647,,,,0,44,44,44,1,40,165,,,,,,,,
,,652414a8df1d3adfddec9600,65af55c14abd09284145a175,2024-01-23_24h00.00.254,bars,2023.2.3,Win32,138.8888889,657b66ea316d21385b68909f,,,,,,,,,,,801.6648,802.6583,,,803.1592,803.4148,,90,90,,,,,,,,,,,,,,,,bars/018.png,bars/mask006.png,,,,,,,,,,,,8,2,,,,,,,6,10,6,8,,,,,,,,,,,802.6583,803.1592,803.4149,806.379,space,2.9539,,806.379,60,0,807.3824,807.3824,807.3866,,,,0,45,45,45,1,150,90,,,,,,,,
,,652414a8df1d3adfddec9600,65af55c14abd09284145a175,2024-01-23_24h00.00.254,bars,2023.2.3,Win32,138.8888889,657b66ea316d21385b68909f,,,,,,,,,,,807.3867,808.3883,,,808.9013,809.1462,,156,-24,,,,,,,,,,,,,,,,bars/040.png,bars/mask008.png,,,,,,,,,,,,4,1,,,,,,,8,10,9,10,,,,,,,,,,,808.3883,808.9013,809.1462,811.3427,space,2.1811,,811.3427,16,29,812.3431,812.3431,812.348,,,,0,46,46,46,1,140,5,,,,,,,,
,,652414a8df1d3adfddec9600,65af55c14abd09284145a175,2024-01-23_24h00.00.254,bars,2023.2.3,Win32,138.8888889,657b66ea316d21385b68909f,,,,,,,,,,,812.3481,813.3436,,,813.8405,814.0896,,76,76,,,,,,,,,,,,,,,,bars/009.png,bars/mask008.png,,,,,,,,,,,,0,2,,,,,,,10,8,10,8,,,,,,,,,,,813.3437,813.8405,814.0896,815.1424,space,1.0388,,815.1424,61,29,816.138,816.1381,816.1395,,,,0,47,47,47,1,15,105,,,,,,,,
,,652414a8df1d3adfddec9600,65af55c14abd09284145a175,2024-01-23_24h00.00.254,bars,2023.2.3,Win32,138.8888889,657b66ea316d21385b68909f,,,,,,,,,,,816.1396,817.131,,,817.627,817.8683,,61,61,,,,,,,,,,,,,,,,bars/038.png,bars/mask006.png,,,,,,,,,,,,5,2,,,,,,,10,6,10,7,,,,,,,,,,,817.131,817.627,817.8684,822.0407,space,4.1573,,822.0408,76,9,823.0432,823.0432,823.0473,,,,0,48,48,48,1,165,70,,,,,,,,
,,652414a8df1d3adfddec9600,65af55c14abd09284145a175,2024-01-23_24h00.00.254,bars,2023.2.3,Win32,138.8888889,657b66ea316d21385b68909f,,,,,,,,,,,823.0475,824.0466,,,824.5486,824.7924,,102,102,,,,,,,,,,,,,,,,bars/041.png,bars/mask004.png,,,,,,,,,,,,3,2,,,,,,,8,8,8,7,,,,,,,,,,,824.0467,824.5485,824.7924,825.9756,space,1.1632,,825.9757,82,17,826.9707,826.9707,826.9711,,,,0,49,49,49,1,20,85,,,,,,,,
,,652414a8df1d3adfddec9600,65af55c14abd09284145a175,2024-01-23_24h00.00.254,bars,2023.2.3,Win32,138.8888889,657b66ea316d21385b68909f,,,,,,,,,,,,,,,,,,,,,,,,,,,,,,,,,,,,,,,,,,,,,,,,,,,,,,,,,,,,,,,,,,,,,,,,,,,,,,,,,,,,,,,,,,,,,826.9713,886.9681,0,1,1,2,1,sequence_tables/blk032.csv
,,652414a8df1d3adfddec9600,65af55c14abd09284145a175,2024-01-23_24h00.00.254,bars,2023.2.3,Win32,138.8888889,657b66ea316d21385b68909f,,,,,,,,,,,887.9265,888.9229,,,889.4245,889.6646,,155,-25,,,,,,,,,,,,,,,,bars/004.png,bars/mask007.png,,,,,,,,,,,,0,2,,,,,,,1,9,1,7,,,,,,886.9726,887.9239,space,0.9453,,888.923,889.4245,889.6646,892.4647,space,2.7939,,892.4647,50,30,893.4598,893.4598,893.4647,,,,0,0,0,0,1,25,125,,,,,,,,
,,652414a8df1d3adfddec9600,65af55c14abd09284145a175,2024-01-23_24h00.00.254,bars,2023.2.3,Win32,138.8888889,657b66ea316d21385b68909f,,,,,,,,,,,893.4648,894.4574,,,894.9525,895.1994,,148,148,,,,,,,,,,,,,,,,bars/008.png,bars/mask004.png,,,,,,,,,,,,0,2,,,,,,,3,7,5,6,,,,,,,,,,,894.4574,894.9525,895.1994,897.4593,space,2.251,,897.4594,38,32,898.4751,898.4751,898.4795,,,,0,1,1,1,1,110,0,,,,,,,,
,,652414a8df1d3adfddec9600,65af55c14abd09284145a175,2024-01-23_24h00.00.254,bars,2023.2.3,Win32,138.8888889,657b66ea316d21385b68909f,,,,,,,,,,,898.4796,899.4752,,,899.9708,900.2073,,173,-7,,,,,,,,,,,,,,,,bars/032.png,bars/mask001.png,,,,,,,,,,,,1,2,,,,,,,5,9,4,9,,,,,,,,,,,899.4752,899.9708,900.2073,902.8096,space,2.5903,,902.8096,48,27,903.7979,903.7979,903.8027,,,,0,2,2,2,1,125,20,,,,,,,,
,,652414a8df1d3adfddec9600,65af55c14abd09284145a175,2024-01-23_24h00.00.254,bars,2023.2.3,Win32,138.8888889,657b66ea316d21385b68909f,,,,,,,,,,,903.8029,904.7905,,,905.2899,905.5408,,14,194,,,,,,,,,,,,,,,,bars/036.png,bars/mask007.png,,,,,,,,,,,,8,2,,,,,,,3,7,5,10,,,,,,,,,,,904.7905,905.2899,905.5409,908.3025,space,2.7538,,908.3025,49,6,909.2988,909.2988,909.3028,,,,0,3,3,3,1,145,20,,,,,,,,
,,652414a8df1d3adfddec9600,65af55c14abd09284145a175,2024-01-23_24h00.00.254,bars,2023.2.3,Win32,138.8888889,657b66ea316d21385b68909f,,,,,,,,,,,909.3029,910.2954,,,910.7903,911.0401,,79,79,,,,,,,,,,,,,,,,bars/034.png,bars/mask007.png,,,,,,,,,,,,2,2,,,,,,,1,5,1,4,,,,,,,,,,,910.2954,910.7902,911.0401,915.0402,space,3.992,,915.0402,46,14,916.0384,916.0384,916.0433,,,,0,4,4,4,1,125,65,,,,,,,,
,,652414a8df1d3adfddec9600,65af55c14abd09284145a175,2024-01-23_24h00.00.254,bars,2023.2.3,Win32,138.8888889,657b66ea316d21385b68909f,,,,,,,,,,,916.0434,917.0393,,,917.5484,917.7988,,100,100,,,,,,,,,,,,,,,,bars/023.png,bars/mask000.png,,,,,,,,,,,,1,2,,,,,,,3,3,5,1,,,,,,,,,,,917.0393,917.5483,917.7988,920.2339,space,2.428,,920.234,80,15,921.235,921.235,921.2395,,,,0,5,5,5,1,20,115,,,,,,,,
,,652414a8df1d3adfddec9600,65af55c14abd09284145a175,2024-01-23_24h00.00.254,bars,2023.2.3,Win32,138.8888889,657b66ea316d21385b68909f,,,,,,,,,,,921.2396,922.2234,,,922.7197,922.9646,,118,118,,,,,,,,,,,,,,,,bars/001.png,bars/mask002.png,,,,,,,,,,,,4,1,,,,,,,5,1,7,2,,,,,,,,,,,922.2235,922.7197,922.9647,925.2747,space,2.2923,,925.2747,12,33,926.2772,926.2772,926.2839,,,,0,6,6,6,1,130,85,,,,,,,,
,,652414a8df1d3adfddec9600,65af55c14abd09284145a175,2024-01-23_24h00.00.254,bars,2023.2.3,Win32,138.8888889,657b66ea316d21385b68909f,,,,,,,,,,,926.284,927.2835,,,927.7789,928.0235,,151,-29,,,,,,,,,,,,,,,,bars/003.png,bars/mask004.png,,,,,,,,,,,,2,2,,,,,,,3,3,3,3,,,,,,,,,,,927.2835,927.7789,928.0235,929.5737,space,1.5418,,929.5737,54,11,930.5666,930.5666,930.568,,,,0,7,7,7,1,25,140,,,,,,,,
,,652414a8df1d3adfddec9600,65af55c14abd09284145a175,2024-01-23_24h00.00.254,bars,2023.2.3,Win32,138.8888889,657b66ea316d21385b68909f,,,,,,,,,,,930.5681,931.5642,,,932.0731,932.3203,,40,40,,,,,,,,,,,,,,,,bars/007.png,bars/mask008.png,,,,,,,,,,,,1,2,,,,,,,5,1,3,1,,,,,,,,,,,931.5642,932.073,932.3203,933.4454,space,1.1082,,933.4454,45,15,934.4473,934.4473,934.4476,,,,0,8,8,8,1,175,55,,,,,,,,
,,652414a8df1d3adfddec9600,65af55c14abd09284145a175,2024-01-23_24h00.00.254,bars,2023.2.3,Win32,138.8888889,657b66ea316d21385b68909f,,,,,,,,,,,934.4477,935.436,,,935.9289,936.1743,,115,115,,,,,,,,,,,,,,,,bars/020.png,bars/mask001.png,,,,,,,,,,,,2,1,,,,,,,3,3,2,5,,,,,,,,,,,935.4361,935.9289,936.1743,938.3872,space,2.2069,,938.3873,0,55,939.3979,939.3979,939.4029,,,,0,9,9,9,1,115,170,,,,,,,,
,,652414a8df1d3adfddec9600,65af55c14abd09284145a175,2024-01-23_24h00.00.254,bars,2023.2.3,Win32,138.8888889,657b66ea316d21385b68909f,,,,,,,,,,,939.403,940.3991,,,940.8961,941.1425,,145,-35,,,,,,,,,,,,,,,,bars/005.png,bars/mask004.png,,,,,,,,,,,,0,2,,,,,,,1,1,0,0,,,,,,,,,,,940.3991,940.8961,941.1425,942.8725,space,1.7211,,942.8725,45,5,943.8796,943.8796,943.8847,,,,0,10,10,10,1,10,140,,,,,,,,
,,652414a8df1d3adfddec9600,65af55c14abd09284145a175,2024-01-23_24h00.00.254,bars,2023.2.3,Win32,138.8888889,657b66ea316d21385b68909f,,,,,,,,,,,943.8848,944.88,,,945.3873,945.6304,,24,24,,,,,,,,,,,,,,,,bars/000.png,bars/mask003.png,,,,,,,,,,,,1,1,,,,,,,3,0,3,0,,,,,,,,,,,944.88,945.3873,945.6304,947.2955,space,1.6532,,947.2955,16,59,948.3024,948.3025,948.3037,,,,0,11,11,11,1,40,145,,,,,,,,
,,652414a8df1d3adfddec9600,65af55c14abd09284145a175,2024-01-23_24h00.00.254,bars,2023.2.3,Win32,138.8888889,657b66ea316d21385b68909f,,,,,,,,,,,948.3039,949.3096,,,949.8099,950.0583,,63,63,,,,,,,,,,,,,,,,bars/007.png,bars/mask009.png,,,,,,,,,,,,0,2,,,,,,,5,0,6,0,,,,,,,,,,,949.3096,949.8099,950.0584,952.2325,space,2.1634,,952.2325,68,8,953.2296,953.2297,953.2318,,,,0,12,12,12,1,175,55,,,,,,,,
,,652414a8df1d3adfddec9600,65af55c14abd09284145a175,2024-01-23_24h00.00.254,bars,2023.2.3,Win32,138.8888889,657b66ea316d21385b68909f,,,,,,,,,,,953.2319,954.2216,,,954.7185,954.969,,51,51,,,,,,,,,,,,,,,,bars/048.png,bars/mask009.png,,,,,,,,,,,,7,1,,,,,,,7,2,7,2,,,,,,,,,,,954.2216,954.7185,954.969,955.6743,space,0.6962,,955.6743,1,56,956.6695,956.6695,956.6708,,,,0,13,13,13,1,50,175,,,,,,,,
,,652414a8df1d3adfddec9600,65af55c14abd09284145a175,2024-01-23_24h00.00.254,bars,2023.2.3,Win32,138.8888889,657b66ea316d21385b68909f,,,,,,,,,,,956.6709,957.6653,,,958.1602,958.4165,,156,-24,,,,,,,,,,,,,,,,bars/001.png,bars/mask004.png,,,,,,,,,,,,1,1,,,,,,,5,4,6,5,,,,,,,,,,,957.6653,958.1602,958.4165,961.0181,space,2.5942,,961.0181,26,71,962.0269,962.0269,962.0311,,,,0,14,14,14,1,130,85,,,,,,,,
,,652414a8df1d3adfddec9600,65af55c14abd09284145a175,2024-01-23_24h00.00.254,bars,2023.2.3,Win32,138.8888889,657b66ea316d21385b68909f,,,,,,,,,,,962.0313,963.0355,,,963.5327,963.7747,,90,90,,,,,,,,,,,,,,,,bars/014.png,bars/mask002.png,,,,,,,,,,,,2,1,,,,,,,3,2,3,1,,,,,,,,,,,963.0355,963.5327,963.7747,966.986,space,3.2023,,966.9861,10,90,967.9862,967.9862,967.9907,,,,0,15,15,15,1,80,0,,,,,,,,
,,652414a8df1d3adfddec9600,65af55c14abd09284145a175,2024-01-23_24h00.00.254,bars,2023.2.3,Win32,138.8888889,657b66ea316d21385b68909f,,,,,,,,,,,967.9908,968.9873,,,969.486,969.7329,,111,111,,,,,,,,,,,,,,,,bars/027.png,bars/mask000.png,,,,,,,,,,,,3,1,,,,,,,1,0,3,0,,,,,,,,,,,968.9874,969.4859,969.7329,971.6726,space,1.9228,,971.6726,1,61,972.6689,972.6689,972.6694,,,,0,16,16,16,1,110,50,,,,,,,,
,,652414a8df1d3adfddec9600,65af55c14abd09284145a175,2024-01-23_24h00.00.254,bars,2023.2.3,Win32,138.8888889,657b66ea316d21385b68909f,,,,,,,,,,,972.6695,973.6722,,,974.1688,974.4078,,94,94,,,,,,,,,,,,,,,,bars/006.png,bars/mask006.png,,,,,,,,,,,,1,2,,,,,,,0,2,0,1,,,,,,,,,,,973.6722,974.1687,974.4078,976.7937,space,2.3524,,976.7937,59,6,977.7884,977.7884,977.793,,,,0,17,17,17,1,35,100,,,,,,,,
,,652414a8df1d3adfddec9600,65af55c14abd09284145a175,2024-01-23_24h00.00.254,bars,2023.2.3,Win32,138.8888889,657b66ea316d21385b68909f,,,,,,,,,,,977.7932,978.7891,,,979.2912,979.537,,155,-25,,,,,,,,,,,,,,,,bars/011.png,bars/mask006.png,,,,,,,,,,,,2,1,,,,,,,2,4,2,5,,,,,,,,,,,978.7891,979.2912,979.537,981.271,space,1.7275,,981.271,5,70,982.2768,982.2769,982.2825,,,,0,18,18,18,1,160,85,,,,,,,,
,,652414a8df1d3adfddec9600,65af55c14abd09284145a175,2024-01-23_24h00.00.254,bars,2023.2.3,Win32,138.8888889,657b66ea316d21385b68909f,,,,,,,,,,,982.2826,983.2806,,,983.7777,984.0258,,68,68,,,,,,,,,,,,,,,,bars/026.png,bars/mask001.png,,,,,,,,,,,,1,2,,,,,,,0,2,0,2,,,,,,,,,,,983.2807,983.7777,984.0258,988.2479,space,4.2138,,988.2479,33,17,989.2423,989.2423,989.248,,,,0,19,19,19,1,35,85,,,,,,,,
,,652414a8df1d3adfddec9600,65af55c14abd09284145a175,2024-01-23_24h00.00.254,bars,2023.2.3,Win32,138.8888889,657b66ea316d21385b68909f,,,,,,,,,,,989.2482,990.2469,,,990.7411,990.9929,,154,154,,,,,,,,,,,,,,,,bars/029.png,bars/mask004.png,,,,,,,,,,,,0,1,,,,,,,0,4,0,4,,,,,,,,,,,990.2469,990.7411,990.9929,992.2587,space,1.2444,,992.2587,64,71,993.2491,993.2493,993.2505,,,,0,20,20,20,1,90,45,,,,,,,,
,,652414a8df1d3adfddec9600,65af55c14abd09284145a175,2024-01-23_24h00.00.254,bars,2023.2.3,Win32,138.8888889,657b66ea316d21385b68909f,,,,,,,,,,,993.2507,994.2555,,,994.7627,995.0068,,81,81,,,,,,,,,,,,,,,,bars/012.png,bars/mask003.png,,,,,,,,,,,,1,1,,,,,,,0,6,1,7,,,,,,,,,,,994.2555,994.7627,995.0068,995.6977,space,0.6708,,995.6977,9,66,996.701,996.7011,996.7016,,,,0,21,21,21,1,90,15,,,,,,,,
,,652414a8df1d3adfddec9600,65af55c14abd09284145a175,2024-01-23_24h00.00.254,bars,2023.2.3,Win32,138.8888889,657b66ea316d21385b68909f,,,,,,,,,,,996.7018,997.6928,,,998.1863,998.4336,,56,56,,,,,,,,,,,,,,,,bars/019.png,bars/mask004.png,,,,,,,,,,,,0,1,,,,,,,0,4,0,5,,,,,,,,,,,997.6928,998.1863,998.4336,1000.2541,space,1.8024,,1000.2541,11,49,1001.2602,1001.2602,1001.2609,,,,0,22,22,22,1,45,105,,,,,,,,
,,652414a8df1d3adfddec9600,65af55c14abd09284145a175,2024-01-23_24h00.00.254,bars,2023.2.3,Win32,138.8888889,657b66ea316d21385b68909f,,,,,,,,,,,1001.261,1002.2577,,,1002.7461,1002.994,,135,135,,,,,,,,,,,,,,,,bars/000.png,bars/mask002.png,,,,,,,,,,,,4,2,,,,,,,0,6,1,6,,,,,,,,,,,1002.2577,1002.7461,1002.994,1005.7758,space,2.7755,,1005.7758,85,10,1006.7707,1006.7707,1006.7758,,,,0,23,23,23,1,40,145,,,,,,,,
,,652414a8df1d3adfddec9600,65af55c14abd09284145a175,2024-01-23_24h00.00.254,bars,2023.2.3,Win32,138.8888889,657b66ea316d21385b68909f,,,,,,,,,,,1006.7759,1007.7779,,,1008.2935,1008.5328,,19,199,,,,,,,,,,,,,,,,bars/005.png,bars/mask008.png,,,,,,,,,,,,1,1,,,,,,,0,4,1,6,,,,,,,,,,,1007.7779,1008.2935,1008.5329,1010.7673,space,2.2277,,1010.7674,9,59,1011.7694,1011.7694,1011.7706,,,,0,24,24,24,1,10,140,,,,,,,,
,,652414a8df1d3adfddec9600,65af55c14abd09284145a175,2024-01-23_24h00.00.254,bars,2023.2.3,Win32,138.8888889,657b66ea316d21385b68909f,,,,,,,,,,,1011.7708,1012.7665,,,1013.2618,1013.5149,,121,121,,,,,,,,,,,,,,,,bars/020.png,bars/mask002.png,,,,,,,,,,,,0,1,,,,,,,0,2,0,1,,,,,,,,,,,1012.7665,1013.2618,1013.515,1015.679,space,2.1555,,1015.6791,6,49,1016.6758,1016.6758,1016.6803,,,,0,25,25,25,1,115,170,,,,,,,,
,,652414a8df1d3adfddec9600,65af55c14abd09284145a175,2024-01-23_24h00.00.254,bars,2023.2.3,Win32,138.8888889,657b66ea316d21385b68909f,,,,,,,,,,,1016.6805,1017.6832,,,1018.1835,1018.4169,,119,119,,,,,,,,,,,,,,,,bars/001.png,bars/mask009.png,,,,,,,,,,,,3,1,,,,,,,2,4,4,4,,,,,,,,,,,1017.6833,1018.1835,1018.4169,1021.2283,space,2.7988,,1021.2284,11,34,1022.225,1022.225,1022.2298,,,,0,26,26,26,1,130,85,,,,,,,,
,,652414a8df1d3adfddec9600,65af55c14abd09284145a175,2024-01-23_24h00.00.254,bars,2023.2.3,Win32,138.8888889,657b66ea316d21385b68909f,,,,,,,,,,,1022.2299,1023.227,,,1023.7245,1023.9754,,36,216,,,,,,,,,,,,,,,,bars/000.png,bars/mask009.png,,,,,,,,,,,,0,1,,,,,,,0,2,0,5,,,,,,,,,,,1023.227,1023.7244,1023.9754,1027.082,space,3.0908,,1027.082,4,71,1028.0845,1028.0846,1028.0891,,,,0,27,27,27,1,40,145,,,,,,,,
,,652414a8df1d3adfddec9600,65af55c14abd09284145a175,2024-01-23_24h00.00.254,bars,2023.2.3,Win32,138.8888889,657b66ea316d21385b68909f,,,,,,,,,,,1028.0892,1029.0743,,,1029.5744,1029.8168,,76,76,,,,,,,,,,,,,,,,bars/004.png,bars/mask008.png,,,,,,,,,,,,0,2,,,,,,,2,4,1,4,,,,,,,,,,,1029.0743,1029.5743,1029.8168,1032.2866,space,2.4489,,1032.2866,51,49,1033.283,1033.283,1033.2883,,,,0,28,28,28,1,25,125,,,,,,,,
,,652414a8df1d3adfddec9600,65af55c14abd09284145a175,2024-01-23_24h00.00.254,bars,2023.2.3,Win32,138.8888889,657b66ea316d21385b68909f,,,,,,,,,,,1033.2883,1034.2905,,,1034.7899,1035.036,,130,130,,,,,,,,,,,,,,,,bars/024.png,bars/mask000.png,,,,,,,,,,,,0,1,,,,,,,0,2,0,3,,,,,,,,,,,1034.2905,1034.7899,1035.036,1037.231,space,2.1869,,1037.231,10,40,1038.2285,1038.2286,1038.2333,,,,0,29,29,29,1,120,170,,,,,,,,
,,652414a8df1d3adfddec9600,65af55c14abd09284145a175,2024-01-23_24h00.00.254,bars,2023.2.3,Win32,138.8888889,657b66ea316d21385b68909f,,,,,,,,,,,1038.2334,1039.2295,,,1039.7292,1039.9749,,85,85,,,,,,,,,,,,,,,,bars/040.png,bars/mask001.png,,,,,,,,,,,,0,1,,,,,,,0,4,0,6,,,,,,,,,,,1039.2295,1039.7292,1039.975,1042.3746,space,2.3823,,1042.3746,55,80,1043.3769,1043.377,1043.3813,,,,0,30,30,30,1,140,5,,,,,,,,
,,652414a8df1d3adfddec9600,65af55c14abd09284145a175,2024-01-23_24h00.00.254,bars,2023.2.3,Win32,138.8888889,657b66ea316d21385b68909f,,,,,,,,,,,1043.3814,1044.3862,,,1044.8801,1045.1253,,150,150,,,,,,,,,,,,,,,,bars/046.png,bars/mask003.png,,,,,,,,,,,,1,1,,,,,,,0,2,1,1,,,,,,,,,,,1044.3862,1044.8801,1045.1254,1046.7867,space,1.6492,,1046.7867,5,65,1047.7933,1047.7933,1047.7939,,,,0,31,31,31,1,155,85,,,,,,,,
,,652414a8df1d3adfddec9600,65af55c14abd09284145a175,2024-01-23_24h00.00.254,bars,2023.2.3,Win32,138.8888889,657b66ea316d21385b68909f,,,,,,,,,,,1047.794,1048.785,,,1049.2736,1049.5297,,90,90,,,,,,,,,,,,,,,,bars/045.png,bars/mask003.png,,,,,,,,,,,,1,1,,,,,,,2,4,1,5,,,,,,,,,,,1048.785,1049.2736,1049.5298,1051.0667,space,1.5266,,1051.0668,10,80,1052.0642,1052.0642,1052.0646,,,,0,32,32,32,1,100,10,,,,,,,,
,,652414a8df1d3adfddec9600,65af55c14abd09284145a175,2024-01-23_24h00.00.254,bars,2023.2.3,Win32,138.8888889,657b66ea316d21385b68909f,,,,,,,,,,,1052.0648,1053.0625,,,1053.5603,1053.799,,179,179,,,,,,,,,,,,,,,,bars/047.png,bars/mask009.png,,,,,,,,,,,,1,1,,,,,,,4,2,2,4,,,,,,,,,,,1053.0625,1053.5603,1053.7991,1058.0822,space,4.2643,,1058.0822,16,71,1059.0763,1059.0764,1059.0808,,,,0,33,33,33,1,15,70,,,,,,,,
,,652414a8df1d3adfddec9600,65af55c14abd09284145a175,2024-01-23_24h00.00.254,bars,2023.2.3,Win32,138.8888889,657b66ea316d21385b68909f,,,,,,,,,,,1059.0808,1060.0821,,,1060.567,1060.814,,105,105,,,,,,,,,,,,,,,,bars/012.png,bars/mask002.png,,,,,,,,,,,,0,1,,,,,,,2,4,0,3,,,,,,,,,,,1060.0822,1060.567,1060.814,1063.5749,space,2.7375,,1063.575,15,90,1064.5714,1064.5714,1064.5756,,,,0,34,34,34,1,90,15,,,,,,,,
,,652414a8df1d3adfddec9600,65af55c14abd09284145a175,2024-01-23_24h00.00.254,bars,2023.2.3,Win32,138.8888889,657b66ea316d21385b68909f,,,,,,,,,,,1064.5757,1065.5642,,,1066.0653,1066.3146,,68,68,,,,,,,,,,,,,,,,bars/014.png,bars/mask004.png,,,,,,,,,,,,0,1,,,,,,,0,6,0,6,,,,,,,,,,,1065.5642,1066.0653,1066.3146,1066.9007,space,0.5731,,1066.9007,12,68,1067.9126,1067.9126,1067.9134,,,,0,35,35,35,1,80,0,,,,,,,,
,,652414a8df1d3adfddec9600,65af55c14abd09284145a175,2024-01-23_24h00.00.254,bars,2023.2.3,Win32,138.8888889,657b66ea316d21385b68909f,,,,,,,,,,,1067.9135,1068.9087,,,1069.4049,1069.6639,,66,66,,,,,,,,,,,,,,,,bars/000.png,bars/mask001.png,,,,,,,,,,,,0,1,,,,,,,0,4,0,3,,,,,,,,,,,1068.9087,1069.4049,1069.664,1072.7393,space,3.0544,,1072.7394,26,79,1073.7336,1073.7336,1073.7378,,,,0,36,36,36,1,40,145,,,,,,,,
,,652414a8df1d3adfddec9600,65af55c14abd09284145a175,2024-01-23_24h00.00.254,bars,2023.2.3,Win32,138.8888889,657b66ea316d21385b68909f,,,,,,,,,,,1073.7379,1074.7324,,,1075.2291,1075.4745,,160,160,,,,,,,,,,,,,,,,bars/037.png,bars/mask001.png,,,,,,,,,,,,0,1,,,,,,,0,6,0,5,,,,,,,,,,,1074.7324,1075.2291,1075.4745,1078.0831,space,2.6018,,1078.0831,10,55,1079.0821,1079.0821,1079.0862,,,,0,37,37,37,1,150,105,,,,,,,,
,,652414a8df1d3adfddec9600,65af55c14abd09284145a175,2024-01-23_24h00.00.254,bars,2023.2.3,Win32,138.8888889,657b66ea316d21385b68909f,,,,,,,,,,,1079.0863,1080.0883,,,1080.5968,1080.8499,,38,38,,,,,,,,,,,,,,,,bars/036.png,bars/mask008.png,,,,,,,,,,,,2,2,,,,,,,0,4,0,6,,,,,,,,,,,1080.0883,1080.5967,1080.8499,1083.8216,space,2.9564,,1083.8216,73,18,1084.8249,1084.8249,1084.8295,,,,0,38,38,38,1,145,20,,,,,,,,
,,652414a8df1d3adfddec9600,65af55c14abd09284145a175,2024-01-23_24h00.00.254,bars,2023.2.3,Win32,138.8888889,657b66ea316d21385b68909f,,,,,,,,,,,1084.8296,1085.8282,,,1086.3247,1086.5773,,157,-23,,,,,,,,,,,,,,,,bars/030.png,bars/mask005.png,,,,,,,,,,,,0,1,,,,,,,2,2,1,2,,,,,,,,,,,1085.8282,1086.3247,1086.5773,1088.654,space,2.0669,,1088.654,17,88,1089.6577,1089.6578,1089.6636,,,,0,39,39,39,1,140,65,,,,,,,,
,,652414a8df1d3adfddec9600,65af55c14abd09284145a175,2024-01-23_24h00.00.254,bars,2023.2.3,Win32,138.8888889,657b66ea316d21385b68909f,,,,,,,,,,,1089.6638,1090.66,,,1091.1559,1091.4119,,90,90,,,,,,,,,,,,,,,,bars/014.png,bars/mask009.png,,,,,,,,,,,,3,1,,,,,,,4,4,4,3,,,,,,,,,,,1090.6601,1091.1558,1091.412,1094.0784,space,2.6579,,1094.0784,10,90,1095.0728,1095.0729,1095.0772,,,,0,40,40,40,1,80,0,,,,,,,,
,,652414a8df1d3adfddec9600,65af55c14abd09284145a175,2024-01-23_24h00.00.254,bars,2023.2.3,Win32,138.8888889,657b66ea316d21385b68909f,,,,,,,,,,,1095.0774,1096.0748,,,1096.5859,1096.8392,,179,179,,,,,,,,,,,,,,,,bars/035.png,bars/mask001.png,,,,,,,,,,,,4,1,,,,,,,6,2,5,3,,,,,,,,,,,1096.0748,1096.5859,1096.8392,1101.0016,space,4.1435,,1101.0016,4,61,1101.9979,1101.998,1102.0026,,,,0,41,41,41,1,175,60,,,,,,,,
,,652414a8df1d3adfddec9600,65af55c14abd09284145a175,2024-01-23_24h00.00.254,bars,2023.2.3,Win32,138.8888889,657b66ea316d21385b68909f,,,,,,,,,,,1102.0026,1103.0114,,,1103.5036,1103.7509,,119,119,,,,,,,,,,,,,,,,bars/024.png,bars/mask005.png,,,,,,,,,,,,4,1,,,,,,,4,4,4,3,,,,,,,,,,,1103.0114,1103.5036,1103.7509,1105.8458,space,2.0862,,1105.8459,1,51,1106.8414,1106.8414,1106.8461,,,,0,42,42,42,1,120,170,,,,,,,,
,,652414a8df1d3adfddec9600,65af55c14abd09284145a175,2024-01-23_24h00.00.254,bars,2023.2.3,Win32,138.8888889,657b66ea316d21385b68909f,,,,,,,,,,,1106.8462,1107.8451,,,1108.3412,1108.5922,,124,124,,,,,,,,,,,,,,,,bars/015.png,bars/mask008.png,,,,,,,,,,,,2,1,,,,,,,2,6,4,6,,,,,,,,,,,1107.8451,1108.3412,1108.5922,1110.7433,space,2.1435,,1110.7433,14,36,1111.7377,1111.7377,1111.7423,,,,0,43,43,43,1,110,160,,,,,,,,
,,652414a8df1d3adfddec9600,65af55c14abd09284145a175,2024-01-23_24h00.00.254,bars,2023.2.3,Win32,138.8888889,657b66ea316d21385b68909f,,,,,,,,,,,1111.7424,1112.7455,,,1113.2426,1113.4871,,48,48,,,,,,,,,,,,,,,,bars/007.png,bars/mask000.png,,,,,,,,,,,,2,2,,,,,,,4,4,5,3,,,,,,,,,,,1112.7455,1113.2426,1113.4871,1116.1551,space,2.659,,1116.1551,53,7,1117.1479,1117.148,1117.153,,,,0,44,44,44,1,175,55,,,,,,,,
,,652414a8df1d3adfddec9600,65af55c14abd09284145a175,2024-01-23_24h00.00.254,bars,2023.2.3,Win32,138.8888889,657b66ea316d21385b68909f,,,,,,,,,,,1117.1531,1118.1555,,,1118.6502,1118.8993,,18,198,,,,,,,,,,,,,,,,bars/047.png,bars/mask008.png,,,,,,,,,,,,5,1,,,,,,,6,6,5,6,,,,,,,,,,,1118.1555,1118.6502,1118.8993,1120.9212,space,2.0134,,1120.9212,3,52,1121.9188,1121.9188,1121.9199,,,,0,45,45,45,1,15,70,,,,,,,,
,,652414a8df1d3adfddec9600,65af55c14abd09284145a175,2024-01-23_24h00.00.254,bars,2023.2.3,Win32,138.8888889,657b66ea316d21385b68909f,,,,,,,,,,,1121.92,1122.9062,,,1123.402,1123.6472,,31,31,,,,,,,,,,,,,,,,bars/048.png,bars/mask007.png,,,,,,,,,,,,1,1,,,,,,,4,4,3,5,,,,,,,,,,,1122.9062,1123.4019,1123.6472,1124.5682,space,0.9088,,1124.5682,19,36,1125.5545,1125.5545,1125.5549,,,,0,46,46,46,1,50,175,,,,,,,,
,,652414a8df1d3adfddec9600,65af55c14abd09284145a175,2024-01-23_24h00.00.254,bars,2023.2.3,Win32,138.8888889,657b66ea316d21385b68909f,,,,,,,,,,,1125.555,1126.551,,,1127.0446,1127.2897,,85,85,,,,,,,,,,,,,,,,bars/024.png,bars/mask006.png,,,,,,,,,,,,0,1,,,,,,,6,6,6,5,,,,,,,,,,,1126.551,1127.0446,1127.2897,1130.1479,space,2.8543,,1130.148,35,85,1131.1485,1131.1485,1131.1529,,,,0,47,47,47,1,120,170,,,,,,,,
,,652414a8df1d3adfddec9600,65af55c14abd09284145a175,2024-01-23_24h00.00.254,bars,2023.2.3,Win32,138.8888889,657b66ea316d21385b68909f,,,,,,,,,,,1131.153,1132.1648,,,1132.6639,1132.9196,,1,181,,,,,,,,,,,,,,,,bars/042.png,bars/mask006.png,,,,,,,,,,,,0,1,,,,,,,4,8,5,9,,,,,,,,,,,1132.1648,1132.6638,1132.9196,1135.2076,space,2.2803,,1135.2076,36,74,1136.2165,1136.2166,1136.2208,,,,0,48,48,48,1,145,75,,,,,,,,
,,652414a8df1d3adfddec9600,65af55c14abd09284145a175,2024-01-23_24h00.00.254,bars,2023.2.3,Win32,138.8888889,657b66ea316d21385b68909f,,,,,,,,,,,1136.2208,1137.2097,,,1137.7006,1137.9344,,140,140,,,,,,,,,,,,,,,,bars/040.png,bars/mask007.png,,,,,,,,,,,,2,1,,,,,,,2,10,2,10,,,,,,,,,,,1137.2098,1137.7005,1137.9344,1141.348,space,3.4061,,1141.348,0,45,1142.3477,1142.3477,1142.3525,,,,0,49,49,49,1,140,5,,,,,,,,
,,652414a8df1d3adfddec9600,65af55c14abd09284145a175,2024-01-23_24h00.00.254,bars,2023.2.3,Win32,138.8888889,657b66ea316d21385b68909f,,,,,,,,,,,,,,,,,,,,,,,,,,,,,,,,,,,,,,,,,,,,,,,,,,,,,,,,,,,,,,,,,,,,,,,,,,,,,,,,,,,,,,,,,,,,,1142.3525,1202.3478,0,2,2,0,1,sequence_tables/blk022.csv
,,652414a8df1d3adfddec9600,65af55c14abd09284145a175,2024-01-23_24h00.00.254,bars,2023.2.3,Win32,138.8888889,657b66ea316d21385b68909f,,,,,,,,,,,1205.8189,1206.8139,,,1207.3155,1207.5623,,147,147,,,,,,,,,,,,,,,,bars/000.png,bars/mask009.png,,,,,,,,,,,,5,2,,,,,,,5,5,4,5,,,,,,1202.3524,1205.817,space,3.4594,,1206.8139,1207.3154,1207.5624,1209.2605,space,1.6742,,1209.2605,73,2,1210.2608,1210.2608,1210.2621,,,,0,0,0,0,1,40,145,,,,,,,,
,,652414a8df1d3adfddec9600,65af55c14abd09284145a175,2024-01-23_24h00.00.254,bars,2023.2.3,Win32,138.8888889,657b66ea316d21385b68909f,,,,,,,,,,,1210.2622,1211.2641,,,1211.7642,1212.0073,,128,128,,,,,,,,,,,,,,,,bars/043.png,bars/mask007.png,,,,,,,,,,,,2,2,,,,,,,3,3,2,2,,,,,,,,,,,1211.2641,1211.7642,1212.0074,1213.661,space,1.646,,1213.661,82,2,1214.6595,1214.6595,1214.6639,,,,0,1,1,1,1,30,130,,,,,,,,
,,652414a8df1d3adfddec9600,65af55c14abd09284145a175,2024-01-23_24h00.00.254,bars,2023.2.3,Win32,138.8888889,657b66ea316d21385b68909f,,,,,,,,,,,1214.664,1215.6604,,,1216.1608,1216.4084,,123,123,,,,,,,,,,,,,,,,bars/003.png,bars/mask008.png,,,,,,,,,,,,0,2,,,,,,,5,1,6,1,,,,,,,,,,,1215.6604,1216.1608,1216.4084,1218.3425,space,1.9164,,1218.3425,82,17,1219.3375,1219.3375,1219.3417,,,,0,2,2,2,1,25,140,,,,,,,,
,,652414a8df1d3adfddec9600,65af55c14abd09284145a175,2024-01-23_24h00.00.254,bars,2023.2.3,Win32,138.8888889,657b66ea316d21385b68909f,,,,,,,,,,,1219.3418,1220.3387,,,1220.8358,1221.0667,,73,73,,,,,,,,,,,,,,,,bars/023.png,bars/mask004.png,,,,,,,,,,,,0,2,,,,,,,3,3,5,4,,,,,,,,,,,1220.3388,1220.8357,1221.0667,1224.7151,space,3.6315,,1224.7151,53,42,1225.7081,1225.7081,1225.7124,,,,0,3,3,3,1,20,115,,,,,,,,
,,652414a8df1d3adfddec9600,65af55c14abd09284145a175,2024-01-23_24h00.00.254,bars,2023.2.3,Win32,138.8888889,657b66ea316d21385b68909f,,,,,,,,,,,1225.7125,1226.6981,,,1227.1974,1227.4377,,160,160,,,,,,,,,,,,,,,,bars/040.png,bars/mask008.png,,,,,,,,,,,,0,1,,,,,,,1,5,1,5,,,,,,,,,,,1226.6981,1227.1974,1227.4377,1228.1111,space,0.6557,,1228.1111,20,25,1229.1122,1229.1123,1229.1138,,,,0,4,4,4,1,140,5,,,,,,,,
,,652414a8df1d3adfddec9600,65af55c14abd09284145a175,2024-01-23_24h00.00.254,bars,2023.2.3,Win32,138.8888889,657b66ea316d21385b68909f,,,,,,,,,,,1229.1139,1230.1109,,,1230.6069,1230.8676,,64,64,,,,,,,,,,,,,,,,bars/007.png,bars/mask001.png,,,,,,,,,,,,1,2,,,,,,,0,3,0,2,,,,,,,,,,,1230.111,1230.6068,1230.8676,1234.3774,space,3.4992,,1234.3774,69,9,1235.372,1235.372,1235.3768,,,,0,5,5,5,1,175,55,,,,,,,,
,,652414a8df1d3adfddec9600,65af55c14abd09284145a175,2024-01-23_24h00.00.254,bars,2023.2.3,Win32,138.8888889,657b66ea316d21385b68909f,,,,,,,,,,,1235.3768,1236.3744,,,1236.8794,1237.1281,,44,44,,,,,,,,,,,,,,,,bars/013.png,bars/mask003.png,,,,,,,,,,,,0,1,,,,,,,2,1,3,1,,,,,,,,,,,1236.3744,1236.8794,1237.1282,1239.3334,space,2.1928,,1239.3335,31,34,1240.3319,1240.3319,1240.3339,,,,0,6,6,6,1,75,10,,,,,,,,
,,652414a8df1d3adfddec9600,65af55c14abd09284145a175,2024-01-23_24h00.00.254,bars,2023.2.3,Win32,138.8888889,657b66ea316d21385b68909f,,,,,,,,,,,1240.3341,1241.3337,,,1241.8299,1242.084,,153,153,,,,,,,,,,,,,,,,bars/008.png,bars/mask001.png,,,,,,,,,,,,0,2,,,,,,,4,3,5,3,,,,,,,,,,,1241.3337,1241.8299,1242.084,1244.1866,space,2.0979,,1244.1866,43,27,1245.1868,1245.1868,1245.192,,,,0,7,7,7,1,110,0,,,,,,,,
,,652414a8df1d3adfddec9600,65af55c14abd09284145a175,2024-01-23_24h00.00.254,bars,2023.2.3,Win32,138.8888889,657b66ea316d21385b68909f,,,,,,,,,,,1245.1922,1246.1826,,,1246.6716,1246.9266,,18,18,,,,,,,,,,,,,,,,bars/012.png,bars/mask003.png,,,,,,,,,,,,5,2,,,,,,,2,5,1,6,,,,,,,,,,,1246.1826,1246.6716,1246.9266,1248.7224,space,1.7858,,1248.7224,72,3,1249.7174,1249.7174,1249.7179,,,,0,8,8,8,1,90,15,,,,,,,,
,,652414a8df1d3adfddec9600,65af55c14abd09284145a175,2024-01-23_24h00.00.254,bars,2023.2.3,Win32,138.8888889,657b66ea316d21385b68909f,,,,,,,,,,,1249.718,1250.7129,,,1251.2118,1251.4628,,85,85,,,,,,,,,,,,,,,,bars/001.png,bars/mask008.png,,,,,,,,,,,,4,2,,,,,,,4,3,4,4,,,,,,,,,,,1250.7129,1251.2117,1251.4628,1254.1896,space,2.7163,,1254.1896,45,0,1255.1945,1255.1945,1255.1994,,,,0,9,9,9,1,130,85,,,,,,,,
,,652414a8df1d3adfddec9600,65af55c14abd09284145a175,2024-01-23_24h00.00.254,bars,2023.2.3,Win32,138.8888889,657b66ea316d21385b68909f,,,,,,,,,,,1255.1995,1256.1966,,,1256.6916,1256.9361,,102,102,,,,,,,,,,,,,,,,bars/039.png,bars/mask000.png,,,,,,,,,,,,5,2,,,,,,,2,5,3,5,,,,,,,,,,,1256.1966,1256.6916,1256.9361,1259.9071,space,2.9647,,1259.9072,73,3,1260.9028,1260.9028,1260.9075,,,,0,10,10,10,1,175,105,,,,,,,,
,,652414a8df1d3adfddec9600,65af55c14abd09284145a175,2024-01-23_24h00.00.254,bars,2023.2.3,Win32,138.8888889,657b66ea316d21385b68909f,,,,,,,,,,,1260.9076,1261.8996,,,1262.401,1262.6481,,49,49,,,,,,,,,,,,,,,,bars/025.png,bars/mask002.png,,,,,,,,,,,,4,2,,,,,,,0,7,0,6,,,,,,,,,,,1261.8996,1262.4009,1262.6481,1265.9691,space,3.2974,,1265.9691,56,9,1266.9688,1266.9689,1266.9749,,,,0,11,11,11,1,105,40,,,,,,,,
,,652414a8df1d3adfddec9600,65af55c14abd09284145a175,2024-01-23_24h00.00.254,bars,2023.2.3,Win32,138.8888889,657b66ea316d21385b68909f,,,,,,,,,,,1266.975,1267.9702,,,1268.4702,1268.7287,,32,212,,,,,,,,,,,,,,,,bars/035.png,bars/mask008.png,,,,,,,,,,,,1,2,,,,,,,0,9,0,8,,,,,,,,,,,1267.9702,1268.4701,1268.7287,1272.0892,space,3.3495,,1272.0893,37,28,1273.0851,1273.0851,1273.0894,,,,0,12,12,12,1,175,60,,,,,,,,
,,652414a8df1d3adfddec9600,65af55c14abd09284145a175,2024-01-23_24h00.00.254,bars,2023.2.3,Win32,138.8888889,657b66ea316d21385b68909f,,,,,,,,,,,1273.0895,1274.0903,,,1274.5902,1274.8412,,104,104,,,,,,,,,,,,,,,,bars/019.png,bars/mask000.png,,,,,,,,,,,,7,2,,,,,,,2,7,3,7,,,,,,,,,,,1274.0904,1274.5902,1274.8413,1276.6542,space,1.8016,,1276.6542,59,1,1277.6564,1277.6564,1277.6608,,,,0,13,13,13,1,45,105,,,,,,,,
,,652414a8df1d3adfddec9600,65af55c14abd09284145a175,2024-01-23_24h00.00.254,bars,2023.2.3,Win32,138.8888889,657b66ea316d21385b68909f,,,,,,,,,,,1277.6609,1278.6588,,,1279.1654,1279.4123,,68,68,,,,,,,,,,,,,,,,bars/035.png,bars/mask006.png,,,,,,,,,,,,7,2,,,,,,,0,9,0,10,,,,,,,,,,,1278.6588,1279.1654,1279.4123,1280.3022,space,0.8843,,1280.3022,73,8,1281.2987,1281.2988,1281.2991,,,,0,14,14,14,1,175,60,,,,,,,,
,,652414a8df1d3adfddec9600,65af55c14abd09284145a175,2024-01-23_24h00.00.254,bars,2023.2.3,Win32,138.8888889,657b66ea316d21385b68909f,,,,,,,,,,,1281.2992,1282.2822,,,1282.7895,1283.0432,,112,112,,,,,,,,,,,,,,,,bars/026.png,bars/mask008.png,,,,,,,,,,,,1,2,,,,,,,0,7,1,7,,,,,,,,,,,1282.2822,1282.7895,1283.0432,1285.447,space,2.3734,,1285.447,77,27,1286.4469,1286.447,1286.4512,,,,0,15,15,15,1,35,85,,,,,,,,
,,652414a8df1d3adfddec9600,65af55c14abd09284145a175,2024-01-23_24h00.00.254,bars,2023.2.3,Win32,138.8888889,657b66ea316d21385b68909f,,,,,,,,,,,1286.4513,1287.4472,,,1287.9381,1288.1872,,41,41,,,,,,,,,,,,,,,,bars/035.png,bars/mask006.png,,,,,,,,,,,,2,2,,,,,,,0,9,2,6,,,,,,,,,,,1287.4472,1287.9381,1288.1872,1290.7382,space,2.5457,,1290.7383,46,19,1291.7378,1291.7378,1291.742,,,,0,16,16,16,1,175,60,,,,,,,,
,,652414a8df1d3adfddec9600,65af55c14abd09284145a175,2024-01-23_24h00.00.254,bars,2023.2.3,Win32,138.8888889,657b66ea316d21385b68909f,,,,,,,,,,,1291.7421,1292.7376,,,1293.2322,1293.493,,112,112,,,,,,,,,,,,,,,,bars/024.png,bars/mask006.png,,,,,,,,,,,,1,1,,,,,,,2,7,2,7,,,,,,,,,,,1292.7376,1293.2322,1293.493,1295.2382,space,1.735,,1295.2382,8,58,1296.2346,1296.2346,1296.236,,,,0,17,17,17,1,120,170,,,,,,,,
,,652414a8df1d3adfddec9600,65af55c14abd09284145a175,2024-01-23_24h00.00.254,bars,2023.2.3,Win32,138.8888889,657b66ea316d21385b68909f,,,,,,,,,,,1296.236,1297.2337,,,1297.7444,1297.987,,63,63,,,,,,,,,,,,,,,,bars/026.png,bars/mask004.png,,,,,,,,,,,,1,2,,,,,,,0,5,0,4,,,,,,,,,,,1297.2337,1297.7444,1297.987,1300.2432,space,2.2333,,1300.2432,28,22,1301.2511,1301.2511,1301.2558,,,,0,18,18,18,1,35,85,,,,,,,,
,,652414a8df1d3adfddec9600,65af55c14abd09284145a175,2024-01-23_24h00.00.254,bars,2023.2.3,Win32,138.8888889,657b66ea316d21385b68909f,,,,,,,,,,,1301.256,1302.2551,,,1302.7593,1303.0206,,82,82,,,,,,,,,,,,,,,,bars/047.png,bars/mask002.png,,,,,,,,,,,,5,2,,,,,,,2,7,1,8,,,,,,,,,,,1302.2552,1302.7593,1303.0206,1305.7723,space,2.7284,,1305.7723,67,12,1306.7682,1306.7682,1306.7726,,,,0,19,19,19,1,15,70,,,,,,,,
,,652414a8df1d3adfddec9600,65af55c14abd09284145a175,2024-01-23_24h00.00.254,bars,2023.2.3,Win32,138.8888889,657b66ea316d21385b68909f,,,,,,,,,,,1306.7727,1307.7735,,,1308.2683,1308.5124,,73,73,,,,,,,,,,,,,,,,bars/038.png,bars/mask004.png,,,,,,,,,,,,5,2,,,,,,,0,5,0,5,,,,,,,,,,,1307.7735,1308.2683,1308.5124,1309.1583,space,0.6398,,1309.1584,88,3,1310.1547,1310.1547,1310.1552,,,,0,20,20,20,1,165,70,,,,,,,,
,,652414a8df1d3adfddec9600,65af55c14abd09284145a175,2024-01-23_24h00.00.254,bars,2023.2.3,Win32,138.8888889,657b66ea316d21385b68909f,,,,,,,,,,,1310.1553,1311.1517,,,1311.642,1311.9052,,77,77,,,,,,,,,,,,,,,,bars/002.png,bars/mask009.png,,,,,,,,,,,,3,2,,,,,,,2,3,2,4,,,,,,,,,,,1311.1517,1311.642,1311.9052,1313.0911,space,1.1785,,1313.0911,53,8,1314.0897,1314.0897,1314.0902,,,,0,21,21,21,1,130,85,,,,,,,,
,,652414a8df1d3adfddec9600,65af55c14abd09284145a175,2024-01-23_24h00.00.254,bars,2023.2.3,Win32,138.8888889,657b66ea316d21385b68909f,,,,,,,,,,,1314.0904,1315.0917,,,1315.5929,1315.8453,,144,-36,,,,,,,,,,,,,,,,bars/026.png,bars/mask009.png,,,,,,,,,,,,0,2,,,,,,,4,5,3,4,,,,,,,,,,,1315.0917,1315.5928,1315.8453,1319.2378,space,3.3812,,1319.2378,71,59,1320.2432,1320.2433,1320.2484,,,,0,22,22,22,1,35,85,,,,,,,,
,,652414a8df1d3adfddec9600,65af55c14abd09284145a175,2024-01-23_24h00.00.254,bars,2023.2.3,Win32,138.8888889,657b66ea316d21385b68909f,,,,,,,,,,,1320.2486,1321.2524,,,1321.7557,1322.0027,,3,3,,,,,,,,,,,,,,,,bars/024.png,bars/mask001.png,,,,,,,,,,,,1,2,,,,,,,6,3,5,2,,,,,,,,,,,1321.2524,1321.7557,1322.0027,1324.7058,space,2.6988,,1324.7058,63,13,1325.7001,1325.7001,1325.7044,,,,0,23,23,23,1,120,170,,,,,,,,
,,652414a8df1d3adfddec9600,65af55c14abd09284145a175,2024-01-23_24h00.00.254,bars,2023.2.3,Win32,138.8888889,657b66ea316d21385b68909f,,,,,,,,,,,1325.7044,1326.6973,,,1327.1997,1327.4516,,56,56,,,,,,,,,,,,,,,,bars/037.png,bars/mask009.png,,,,,,,,,,,,0,2,,,,,,,4,1,4,3,,,,,,,,,,,1326.6973,1327.1997,1327.4516,1330.0702,space,2.6007,,1330.0702,86,49,1331.0769,1331.0769,1331.0809,,,,0,24,24,24,1,150,105,,,,,,,,
,,652414a8df1d3adfddec9600,65af55c14abd09284145a175,2024-01-23_24h00.00.254,bars,2023.2.3,Win32,138.8888889,657b66ea316d21385b68909f,,,,,,,,,,,1331.0809,1332.0749,,,1332.5769,1332.8319,,179,-1,,,,,,,,,,,,,,,,bars/036.png,bars/mask000.png,,,,,,,,,,,,0,2,,,,,,,2,0,1,0,,,,,,,,,,,1332.0749,1332.5769,1332.832,1333.8909,space,1.0507,,1333.8909,34,21,1334.8935,1334.8936,1334.8941,,,,0,25,25,25,1,145,20,,,,,,,,
,,652414a8df1d3adfddec9600,65af55c14abd09284145a175,2024-01-23_24h00.00.254,bars,2023.2.3,Win32,138.8888889,657b66ea316d21385b68909f,,,,,,,,,,,1334.8942,1335.8912,,,1336.397,1336.643,,135,135,,,,,,,,,,,,,,,,bars/028.png,bars/mask004.png,,,,,,,,,,,,1,2,,,,,,,0,0,1,1,,,,,,,,,,,1335.8912,1336.397,1336.643,1338.4233,space,1.7693,,1338.4233,90,15,1339.4218,1339.4219,1339.4261,,,,0,26,26,26,1,45,120,,,,,,,,
,,652414a8df1d3adfddec9600,65af55c14abd09284145a175,2024-01-23_24h00.00.254,bars,2023.2.3,Win32,138.8888889,657b66ea316d21385b68909f,,,,,,,,,,,1339.4262,1340.4282,,,1340.9284,1341.1732,,133,133,,,,,,,,,,,,,,,,bars/028.png,bars/mask009.png,,,,,,,,,,,,0,2,,,,,,,0,0,1,0,,,,,,,,,,,1340.4282,1340.9284,1341.1732,1342.8695,space,1.6734,,1342.8695,88,13,1343.8651,1343.8651,1343.8699,,,,0,27,27,27,1,45,120,,,,,,,,
,,652414a8df1d3adfddec9600,65af55c14abd09284145a175,2024-01-23_24h00.00.254,bars,2023.2.3,Win32,138.8888889,657b66ea316d21385b68909f,,,,,,,,,,,1343.8699,1344.8551,,,1345.3486,1345.6121,,17,17,,,,,,,,,,,,,,,,bars/016.png,bars/mask001.png,,,,,,,,,,,,0,1,,,,,,,0,0,0,0,,,,,,,,,,,1344.8551,1345.3486,1345.6121,1347.6795,space,2.0554,,1347.6795,23,32,1348.6902,1348.6902,1348.6915,,,,0,28,28,28,1,40,165,,,,,,,,
,,652414a8df1d3adfddec9600,65af55c14abd09284145a175,2024-01-23_24h00.00.254,bars,2023.2.3,Win32,138.8888889,657b66ea316d21385b68909f,,,,,,,,,,,1348.6915,1349.6883,,,1350.1912,1350.4369,,145,145,,,,,,,,,,,,,,,,bars/032.png,bars/mask001.png,,,,,,,,,,,,0,1,,,,,,,0,2,0,2,,,,,,,,,,,1349.6883,1350.1911,1350.4369,1354.5445,space,4.097,,1354.5445,20,55,1355.5471,1355.5471,1355.5513,,,,0,29,29,29,1,125,20,,,,,,,,
,,652414a8df1d3adfddec9600,65af55c14abd09284145a175,2024-01-23_24h00.00.254,bars,2023.2.3,Win32,138.8888889,657b66ea316d21385b68909f,,,,,,,,,,,1355.5513,1356.5465,,,1357.0433,1357.2884,,146,146,,,,,,,,,,,,,,,,bars/043.png,bars/mask005.png,,,,,,,,,,,,1,2,,,,,,,2,4,3,3,,,,,,,,,,,1356.5465,1357.0433,1357.2884,1360.7935,space,3.4968,,1360.7935,64,16,1361.7908,1361.7908,1361.7962,,,,0,30,30,30,1,30,130,,,,,,,,
,,652414a8df1d3adfddec9600,65af55c14abd09284145a175,2024-01-23_24h00.00.254,bars,2023.2.3,Win32,138.8888889,657b66ea316d21385b68909f,,,,,,,,,,,1361.7963,1362.7961,,,1363.2982,1363.5414,,3,183,,,,,,,,,,,,,,,,bars/012.png,bars/mask002.png,,,,,,,,,,,,1,2,,,,,,,4,2,4,2,,,,,,,,,,,1362.7961,1363.2981,1363.5414,1365.7701,space,2.2219,,1365.7702,87,12,1366.7743,1366.7743,1366.7787,,,,0,31,31,31,1,90,15,,,,,,,,
,,652414a8df1d3adfddec9600,65af55c14abd09284145a175,2024-01-23_24h00.00.254,bars,2023.2.3,Win32,138.8888889,657b66ea316d21385b68909f,,,,,,,,,,,1366.7788,1367.7767,,,1368.2717,1368.521,,59,59,,,,,,,,,,,,,,,,bars/031.png,bars/mask001.png,,,,,,,,,,,,1,2,,,,,,,6,4,6,4,,,,,,,,,,,1367.7767,1368.2717,1368.521,1371.8091,space,3.2763,,1371.8091,61,24,1372.8053,1372.8053,1372.8098,,,,0,32,32,32,1,120,35,,,,,,,,
,,652414a8df1d3adfddec9600,65af55c14abd09284145a175,2024-01-23_24h00.00.254,bars,2023.2.3,Win32,138.8888889,657b66ea316d21385b68909f,,,,,,,,,,,1372.8098,1373.8098,,,1374.3063,1374.5464,,64,64,,,,,,,,,,,,,,,,bars/002.png,bars/mask004.png,,,,,,,,,,,,2,2,,,,,,,8,6,7,5,,,,,,,,,,,1373.8098,1374.3063,1374.5464,1377.1651,space,2.6071,,1377.1652,66,21,1378.1669,1378.167,1378.171,,,,0,33,33,33,1,130,85,,,,,,,,
,,652414a8df1d3adfddec9600,65af55c14abd09284145a175,2024-01-23_24h00.00.254,bars,2023.2.3,Win32,138.8888889,657b66ea316d21385b68909f,,,,,,,,,,,1378.1711,1379.1492,,,1379.6398,1379.8794,,68,68,,,,,,,,,,,,,,,,bars/029.png,bars/mask002.png,,,,,,,,,,,,2,1,,,,,,,6,4,6,5,,,,,,,,,,,1379.1492,1379.6397,1379.8794,1381.6444,space,1.7521,,1381.6445,22,23,1382.6424,1382.6425,1382.6434,,,,0,34,34,34,1,90,45,,,,,,,,
,,652414a8df1d3adfddec9600,65af55c14abd09284145a175,2024-01-23_24h00.00.254,bars,2023.2.3,Win32,138.8888889,657b66ea316d21385b68909f,,,,,,,,,,,1382.6435,1383.6367,,,1384.137,1384.3886,,51,51,,,,,,,,,,,,,,,,bars/007.png,bars/mask006.png,,,,,,,,,,,,3,2,,,,,,,8,2,7,3,,,,,,,,,,,1383.6368,1384.137,1384.3886,1387.161,space,2.7523,,1387.161,56,4,1388.166,1388.166,1388.1709,,,,0,35,35,35,1,175,55,,,,,,,,
,,652414a8df1d3adfddec9600,65af55c14abd09284145a175,2024-01-23_24h00.00.254,bars,2023.2.3,Win32,138.8888889,657b66ea316d21385b68909f,,,,,,,,,,,1388.1711,1389.1715,,,1389.6678,1389.9163,,142,142,,,,,,,,,,,,,,,,bars/005.png,bars/mask007.png,,,,,,,,,,,,0,2,,,,,,,6,0,7,0,,,,,,,,,,,1389.1715,1389.6678,1389.9163,1391.572,space,1.6359,,1391.5721,48,2,1392.5693,1392.5694,1392.5698,,,,0,36,36,36,1,10,140,,,,,,,,
,,652414a8df1d3adfddec9600,65af55c14abd09284145a175,2024-01-23_24h00.00.254,bars,2023.2.3,Win32,138.8888889,657b66ea316d21385b68909f,,,,,,,,,,,1392.5698,1393.5665,,,1394.0625,1394.3247,,47,227,,,,,,,,,,,,,,,,bars/029.png,bars/mask009.png,,,,,,,,,,,,1,2,,,,,,,4,2,3,1,,,,,,,,,,,1393.5665,1394.0625,1394.3247,1398.0252,space,3.6876,,1398.0252,43,2,1399.0176,1399.0177,1399.0221,,,,0,37,37,37,1,90,45,,,,,,,,
,,652414a8df1d3adfddec9600,65af55c14abd09284145a175,2024-01-23_24h00.00.254,bars,2023.2.3,Win32,138.8888889,657b66ea316d21385b68909f,,,,,,,,,,,1399.0222,1400.0198,,,1400.5273,1400.7789,,163,163,,,,,,,,,,,,,,,,bars/024.png,bars/mask008.png,,,,,,,,,,,,3,2,,,,,,,2,4,1,4,,,,,,,,,,,1400.0199,1400.5273,1400.7789,1402.3855,space,1.5893,,1402.3855,43,7,1403.3886,1403.3886,1403.3891,,,,0,38,38,38,1,120,170,,,,,,,,
,,652414a8df1d3adfddec9600,65af55c14abd09284145a175,2024-01-23_24h00.00.254,bars,2023.2.3,Win32,138.8888889,657b66ea316d21385b68909f,,,,,,,,,,,1403.3891,1404.3861,,,1404.8873,1405.1296,,135,135,,,,,,,,,,,,,,,,bars/020.png,bars/mask003.png,,,,,,,,,,,,1,1,,,,,,,4,6,4,6,,,,,,,,,,,1404.3861,1404.8873,1405.1296,1407.4384,space,2.298,,1407.4385,20,35,1408.4364,1408.4364,1408.4419,,,,0,39,39,39,1,115,170,,,,,,,,
,,652414a8df1d3adfddec9600,65af55c14abd09284145a175,2024-01-23_24h00.00.254,bars,2023.2.3,Win32,138.8888889,657b66ea316d21385b68909f,,,,,,,,,,,1408.442,1409.4329,,,1409.9286,1410.1681,,127,127,,,,,,,,,,,,,,,,bars/043.png,bars/mask003.png,,,,,,,,,,,,2,2,,,,,,,2,4,2,2,,,,,,,,,,,1409.4329,1409.9286,1410.1681,1412.1688,space,1.9938,,1412.1688,83,3,1413.1678,1413.1679,1413.1689,,,,0,40,40,40,1,30,130,,,,,,,,
,,652414a8df1d3adfddec9600,65af55c14abd09284145a175,2024-01-23_24h00.00.254,bars,2023.2.3,Win32,138.8888889,657b66ea316d21385b68909f,,,,,,,,,,,1413.169,1414.1624,,,1414.6579,1414.9043,,14,194,,,,,,,,,,,,,,,,bars/016.png,bars/mask003.png,,,,,,,,,,,,1,1,,,,,,,4,2,7,2,,,,,,,,,,,1414.1624,1414.6579,1414.9043,1416.9085,space,1.9988,,1416.9085,26,29,1417.9038,1417.9038,1417.9092,,,,0,41,41,41,1,40,165,,,,,,,,
,,652414a8df1d3adfddec9600,65af55c14abd09284145a175,2024-01-23_24h00.00.254,bars,2023.2.3,Win32,138.8888889,657b66ea316d21385b68909f,,,,,,,,,,,1417.9093,1418.9023,,,1419.4,1419.6532,,66,66,,,,,,,,,,,,,,,,bars/028.png,bars/mask000.png,,,,,,,,,,,,2,1,,,,,,,6,4,7,5,,,,,,,,,,,1418.9023,1419.4,1419.6532,1423.0698,space,3.4043,,1423.0698,21,54,1424.062,1424.062,1424.0667,,,,0,42,42,42,1,45,120,,,,,,,,
,,652414a8df1d3adfddec9600,65af55c14abd09284145a175,2024-01-23_24h00.00.254,bars,2023.2.3,Win32,138.8888889,657b66ea316d21385b68909f,,,,,,,,,,,1424.0669,1425.068,,,1425.5648,1425.827,,41,221,,,,,,,,,,,,,,,,bars/022.png,bars/mask008.png,,,,,,,,,,,,1,2,,,,,,,4,2,4,3,,,,,,,,,,,1425.068,1425.5648,1425.827,1430.2624,space,4.4168,,1430.2625,54,21,1431.2472,1431.2472,1431.253,,,,0,43,43,43,1,95,20,,,,,,,,
,,652414a8df1d3adfddec9600,65af55c14abd09284145a175,2024-01-23_24h00.00.254,bars,2023.2.3,Win32,138.8888889,657b66ea316d21385b68909f,,,,,,,,,,,1431.2532,1432.2425,,,1432.7398,1432.9812,,115,115,,,,,,,,,,,,,,,,bars/023.png,bars/mask003.png,,,,,,,,,,,,1,2,,,,,,,6,0,5,1,,,,,,,,,,,1432.2426,1432.7397,1432.9813,1433.9719,space,0.9805,,1433.9719,85,0,1434.9637,1434.9638,1434.9643,,,,0,44,44,44,1,20,115,,,,,,,,
,,652414a8df1d3adfddec9600,65af55c14abd09284145a175,2024-01-23_24h00.00.254,bars,2023.2.3,Win32,138.8888889,657b66ea316d21385b68909f,,,,,,,,,,,1434.9645,1435.9659,,,1436.4603,1436.7102,,74,74,,,,,,,,,,,,,,,,bars/037.png,bars/mask000.png,,,,,,,,,,,,0,2,,,,,,,4,0,3,0,,,,,,,,,,,1435.9659,1436.4602,1436.7102,1438.3402,space,1.6124,,1438.3402,76,31,1439.3392,1439.3392,1439.3399,,,,0,45,45,45,1,150,105,,,,,,,,
,,652414a8df1d3adfddec9600,65af55c14abd09284145a175,2024-01-23_24h00.00.254,bars,2023.2.3,Win32,138.8888889,657b66ea316d21385b68909f,,,,,,,,,,,1439.34,1440.3348,,,1440.8298,1441.0864,,141,141,,,,,,,,,,,,,,,,bars/005.png,bars/mask003.png,,,,,,,,,,,,1,2,,,,,,,6,2,6,1,,,,,,,,,,,1440.3348,1440.8298,1441.0864,1442.5662,space,1.4715,,1442.5662,49,1,1443.5676,1443.5676,1443.5682,,,,0,46,46,46,1,10,140,,,,,,,,
,,652414a8df1d3adfddec9600,65af55c14abd09284145a175,2024-01-23_24h00.00.254,bars,2023.2.3,Win32,138.8888889,657b66ea316d21385b68909f,,,,,,,,,,,1443.5683,1444.5658,,,1445.0651,1445.316,,121,121,,,,,,,,,,,,,,,,bars/004.png,bars/mask006.png,,,,,,,,,,,,4,2,,,,,,,4,4,3,5,,,,,,,,,,,1444.5658,1445.065,1445.316,1446.5103,space,1.186,,1446.5103,84,4,1447.509,1447.509,1447.5095,,,,0,47,47,47,1,25,125,,,,,,,,
,,652414a8df1d3adfddec9600,65af55c14abd09284145a175,2024-01-23_24h00.00.254,bars,2023.2.3,Win32,138.8888889,657b66ea316d21385b68909f,,,,,,,,,,,1447.5096,1448.5106,,,1449.0054,1449.2559,,55,55,,,,,,,,,,,,,,,,bars/022.png,bars/mask009.png,,,,,,,,,,,,0,2,,,,,,,2,2,2,3,,,,,,,,,,,1448.5106,1449.0053,1449.2559,1452.5349,space,3.268,,1452.535,40,35,1453.5242,1453.5243,1453.5301,,,,0,48,48,48,1,95,20,,,,,,,,
,,652414a8df1d3adfddec9600,65af55c14abd09284145a175,2024-01-23_24h00.00.254,bars,2023.2.3,Win32,138.8888889,657b66ea316d21385b68909f,,,,,,,,,,,1453.5302,1454.5309,,,1455.0302,1455.2767,,58,58,,,,,,,,,,,,,,,,bars/019.png,bars/mask007.png,,,,,,,,,,,,0,1,,,,,,,0,0,0,0,,,,,,,,,,,1454.5309,1455.0302,1455.2767,1458.8604,space,3.5725,,1458.8604,13,47,1459.8608,1459.8608,1459.8667,,,,0,49,49,49,1,45,105,,,,,,,,
,,652414a8df1d3adfddec9600,65af55c14abd09284145a175,2024-01-23_24h00.00.254,bars,2023.2.3,Win32,138.8888889,657b66ea316d21385b68909f,,,,,,,,,,,,,,,,,,,,,,,,,,,,,,,,,,,,,,,,,,,,,,,,,,,,,,,,,,,,,,,,,,,,,,,,,,,,,,,,,,,,,,,,,,,,,1459.8667,1519.8603,0,3,3,4,1,sequence_tables/blk014.csv
,,652414a8df1d3adfddec9600,65af55c14abd09284145a175,2024-01-23_24h00.00.254,bars,2023.2.3,Win32,138.8888889,657b66ea316d21385b68909f,,,,,,,,,,,1521.6152,1522.6158,,,1523.1128,1523.3597,,99,99,,,,,,,,,,,,,,,,bars/028.png,bars/mask003.png,,,,,,,,,,,,1,2,,,,,,,10,2,9,2,,,,,,1519.8646,1521.6131,space,1.7317,,1522.6158,1523.1128,1523.3597,1524.7082,space,1.3393,,1524.7083,54,21,1525.7105,1525.7106,1525.7117,,,,0,0,0,0,1,45,120,,,,,,,,
,,652414a8df1d3adfddec9600,65af55c14abd09284145a175,2024-01-23_24h00.00.254,bars,2023.2.3,Win32,138.8888889,657b66ea316d21385b68909f,,,,,,,,,,,1525.7118,1526.7059,,,1527.1965,1527.4454,,72,72,,,,,,,,,,,,,,,,bars/002.png,bars/mask000.png,,,,,,,,,,,,0,2,,,,,,,8,0,8,0,,,,,,,,,,,1526.7059,1527.1965,1527.4454,1530.5543,space,3.09,,1530.5543,58,13,1531.5373,1531.5373,1531.5416,,,,0,1,1,1,1,130,85,,,,,,,,
,,652414a8df1d3adfddec9600,65af55c14abd09284145a175,2024-01-23_24h00.00.254,bars,2023.2.3,Win32,138.8888889,657b66ea316d21385b68909f,,,,,,,,,,,1531.5417,1532.5382,,,1533.0289,1533.2744,,66,66,,,,,,,,,,,,,,,,bars/027.png,bars/mask003.png,,,,,,,,,,,,1,2,,,,,,,6,2,4,2,,,,,,,,,,,1532.5382,1533.0288,1533.2745,1534.9456,space,1.663,,1534.9456,44,16,1535.9446,1535.9446,1535.9451,,,,0,2,2,2,1,110,50,,,,,,,,
,,652414a8df1d3adfddec9600,65af55c14abd09284145a175,2024-01-23_24h00.00.254,bars,2023.2.3,Win32,138.8888889,657b66ea316d21385b68909f,,,,,,,,,,,1535.9453,1536.9483,,,1537.4481,1537.7018,,54,54,,,,,,,,,,,,,,,,bars/031.png,bars/mask001.png,,,,,,,,,,,,0,2,,,,,,,8,0,6,1,,,,,,,,,,,1536.9483,1537.4481,1537.7018,1540.0325,space,2.3215,,1540.0325,66,19,1541.0342,1541.0342,1541.0389,,,,0,3,3,3,1,120,35,,,,,,,,
,,652414a8df1d3adfddec9600,65af55c14abd09284145a175,2024-01-23_24h00.00.254,bars,2023.2.3,Win32,138.8888889,657b66ea316d21385b68909f,,,,,,,,,,,1541.0391,1542.0395,,,1542.5379,1542.7924,,144,144,,,,,,,,,,,,,,,,bars/003.png,bars/mask001.png,,,,,,,,,,,,1,2,,,,,,,6,2,8,1,,,,,,,,,,,1542.0395,1542.5379,1542.7924,1543.8422,space,1.0384,,1543.8422,61,4,1544.8387,1544.8387,1544.8392,,,,0,4,4,4,1,25,140,,,,,,,,
,,652414a8df1d3adfddec9600,65af55c14abd09284145a175,2024-01-23_24h00.00.254,bars,2023.2.3,Win32,138.8888889,657b66ea316d21385b68909f,,,,,,,,,,,1544.8393,1545.8345,,,1546.3308,1546.5776,,171,171,,,,,,,,,,,,,,,,bars/008.png,bars/mask008.png,,,,,,,,,,,,0,2,,,,,,,4,0,6,0,,,,,,,,,,,1545.8345,1546.3307,1546.5776,1548.4354,space,1.8407,,1548.4354,61,9,1549.4381,1549.4382,1549.4386,,,,0,5,5,5,1,110,0,,,,,,,,
,,652414a8df1d3adfddec9600,65af55c14abd09284145a175,2024-01-23_24h00.00.254,bars,2023.2.3,Win32,138.8888889,657b66ea316d21385b68909f,,,,,,,,,,,1549.4387,1550.4351,,,1550.9363,1551.1874,,61,61,,,,,,,,,,,,,,,,bars/035.png,bars/mask003.png,,,,,,,,,,,,1,2,,,,,,,2,0,2,1,,,,,,,,,,,1550.4351,1550.9363,1551.1875,1552.9681,space,1.7695,,1552.9682,66,1,1553.9647,1553.9647,1553.9651,,,,0,6,6,6,1,175,60,,,,,,,,
,,652414a8df1d3adfddec9600,65af55c14abd09284145a175,2024-01-23_24h00.00.254,bars,2023.2.3,Win32,138.8888889,657b66ea316d21385b68909f,,,,,,,,,,,1553.9652,1554.9619,,,1555.467,1555.7078,,133,133,,,,,,,,,,,,,,,,bars/028.png,bars/mask006.png,,,,,,,,,,,,1,2,,,,,,,4,2,4,1,,,,,,,,,,,1554.962,1555.467,1555.7078,1557.4031,space,1.6854,,1557.4031,88,13,1558.4056,1558.4057,1558.41,,,,0,7,7,7,1,45,120,,,,,,,,
,,652414a8df1d3adfddec9600,65af55c14abd09284145a175,2024-01-23_24h00.00.254,bars,2023.2.3,Win32,138.8888889,657b66ea316d21385b68909f,,,,,,,,,,,1558.4101,1559.4118,,,1559.9087,1560.1547,,55,55,,,,,,,,,,,,,,,,bars/025.png,bars/mask000.png,,,,,,,,,,,,1,2,,,,,,,6,0,6,1,,,,,,,,,,,1559.4118,1559.9087,1560.1547,1561.018,space,0.8503,,1561.018,50,15,1562.0167,1562.0168,1562.0173,,,,0,8,8,8,1,105,40,,,,,,,,
,,652414a8df1d3adfddec9600,65af55c14abd09284145a175,2024-01-23_24h00.00.254,bars,2023.2.3,Win32,138.8888889,657b66ea316d21385b68909f,,,,,,,,,,,1562.0174,1563.0156,,,1563.514,1563.762,,159,-21,,,,,,,,,,,,,,,,bars/044.png,bars/mask001.png,,,,,,,,,,,,2,2,,,,,,,4,2,5,2,,,,,,,,,,,1563.0156,1563.514,1563.762,1566.9248,space,3.1561,,1566.9248,84,4,1567.9283,1567.9283,1567.9333,,,,0,9,9,9,1,75,155,,,,,,,,
,,652414a8df1d3adfddec9600,65af55c14abd09284145a175,2024-01-23_24h00.00.254,bars,2023.2.3,Win32,138.8888889,657b66ea316d21385b68909f,,,,,,,,,,,1567.9334,1568.9361,,,1569.4359,1569.681,,44,44,,,,,,,,,,,,,,,,bars/010.png,bars/mask008.png,,,,,,,,,,,,0,2,,,,,,,2,0,2,0,,,,,,,,,,,1568.9361,1569.4359,1569.6811,1570.9245,space,1.2241,,1570.9245,59,11,1571.9333,1571.9333,1571.9336,,,,0,10,10,10,1,165,55,,,,,,,,
,,652414a8df1d3adfddec9600,65af55c14abd09284145a175,2024-01-23_24h00.00.254,bars,2023.2.3,Win32,138.8888889,657b66ea316d21385b68909f,,,,,,,,,,,1571.9337,1572.9354,,,1573.4416,1573.6791,,126,126,,,,,,,,,,,,,,,,bars/004.png,bars/mask002.png,,,,,,,,,,,,4,2,,,,,,,0,2,1,4,,,,,,,,,,,1572.9354,1573.4416,1573.6791,1575.0086,space,1.3115,,1575.0086,79,1,1576.0036,1576.0036,1576.0043,,,,0,11,11,11,1,25,125,,,,,,,,
,,652414a8df1d3adfddec9600,65af55c14abd09284145a175,2024-01-23_24h00.00.254,bars,2023.2.3,Win32,138.8888889,657b66ea316d21385b68909f,,,,,,,,,,,1576.0045,1577.0001,,,1577.4985,1577.7472,,66,66,,,,,,,,,,,,,,,,bars/001.png,bars/mask002.png,,,,,,,,,,,,0,2,,,,,,,2,0,2,0,,,,,,,,,,,1577.0002,1577.4985,1577.7472,1579.2065,space,1.4397,,1579.2066,64,19,1580.1999,1580.1999,1580.2002,,,,0,12,12,12,1,130,85,,,,,,,,
,,652414a8df1d3adfddec9600,65af55c14abd09284145a175,2024-01-23_24h00.00.254,bars,2023.2.3,Win32,138.8888889,657b66ea316d21385b68909f,,,,,,,,,,,1580.2003,1581.2011,,,1581.7078,1581.9586,,77,77,,,,,,,,,,,,,,,,bars/023.png,bars/mask001.png,,,,,,,,,,,,0,2,,,,,,,0,2,1,1,,,,,,,,,,,1581.2011,1581.7078,1581.9587,1584.5773,space,2.6082,,1584.5773,57,38,1585.5718,1585.5718,1585.5761,,,,0,13,13,13,1,20,115,,,,,,,,
