init_variables.started,init_variables.stopped,participant,session,date,expName,psychopyVersion,OS,frameRate,study_id,instruction_exp.started,instruction_exp.stopped,key_resp_8.keys,key_resp_8.rt,key_resp_8.duration,instruction_single.started,instruction_single.stopped,key_resp_2.keys,key_resp_2.rt,key_resp_2.duration,interval.started,interval.stopped,cue_single.started,cue_single.stopped,mask.started,mask.stopped,ori_response_single.started,res_ori,res,ori_response_single.stopped,key_resp_single.keys,key_resp_single.rt,key_resp_single.duration,disp_single.started,disp_single.stopped,key_resp.keys,key_resp.rt,key_resp.duration,single.thisRepN,single.thisTrialN,single.thisN,single.thisIndex,single.ran,ori,path,mask_path,instruction_bandit.started,instruction_bandit.stopped,key_resp_6.keys,key_resp_6.rt,key_resp_6.duration,cue_bandit.started,cue_bandit.stopped,bandit_res.keys,bandit_res.rt,bandit_res.duration,outcome_bandit.started,rew,action,outcome_bandit.stopped,bandit.thisRepN,bandit.thisTrialN,bandit.thisN,bandit.thisIndex,bandit.ran,actual_rew1,actual_rew2,rew1,rew2,instruction_task.started,instruction_task.stopped,key_resp_7.keys,key_resp_7.rt,key_resp_7.duration,wait_ready.started,wait_ready.stopped,key_resp_3.keys,key_resp_3.rt,key_resp_3.duration,cue.started,cue.stopped,ori_response.started,ori_response.stopped,key_resp_5.keys,key_resp_5.rt,key_resp_5.duration,outcome.started,diff1,diff2,outcome.stopped,disp_outcome_practice.started,disp_outcome_practice.stopped,key_resp_4.keys,key_resp_4.rt,key_resp_4.duration,trials.thisRepN,trials.thisTrialN,trials.thisN,trials.thisIndex,trials.ran,ori1,ori2,break_blk.started,break_blk.stopped,block.thisRepN,block.thisTrialN,block.thisN,block.thisIndex,block.ran,condition_file
0.001,0.0012,6526a0e62c605cc42d9a52e4,65af56226c4c8a399abc700f,2024-01-23_08h04.16.669,bars,2023.2.3,Win32,7.501875469,657b66ea316d21385b68909f,,,,,,,,,,,,,,,,,,,,,,,,,,,,,,,,,,,,,,,,,,,,,,,,,,,,,,,,,,,,,,,,,,,,,,,,,,,,,,,,,,,,,,,,,,,,,,,,,,,,
,,6526a0e62c605cc42d9a52e4,65af56226c4c8a399abc700f,2024-01-23_08h04.16.669,bars,2023.2.3,Win32,7.501875469,657b66ea316d21385b68909f,0.0014,26.7454,y,26.5842,0.0007,,,,,,,,,,,,,,,,,,,,,,,,,,,,,,,,,,,,,,,,,,,,,,,,,,,,,,,,,,,,,,,,,,,,,,,,,,,,,,,,,,,,,,,,,,,,,,,
,,6526a0e62c605cc42d9a52e4,65af56226c4c8a399abc700f,2024-01-23_08h04.16.669,bars,2023.2.3,Win32,7.501875469,657b66ea316d21385b68909f,,,,,,26.7457,60.8819,space,33.9435,0.0005,,,,,,,,,,,,,,,,,,,,,,,,,,,,,,,,,,,,,,,,,,,,,,,,,,,,,,,,,,,,,,,,,,,,,,,,,,,,,,,,,,,,,,,,,,
,,6526a0e62c605cc42d9a52e4,65af56226c4c8a399abc700f,2024-01-23_08h04.16.669,bars,2023.2.3,Win32,7.501875469,657b66ea316d21385b68909f,,,,,,,,,,,60.974,61.9911,61.9913,62.3911,62.3912,62.7451,62.7454,0,180,189.3298,space,126.3635,,189.3301,242.4568,space,52.8035,,0,0,0,5,1,55,bars/single005.png,bars/mask008.png,,,,,,,,,,,,,,,,,,,,,,,,,,,,,,,,,,,,,,,,,,,,,,,,,,,,,,,,,,,,,,,,
,,6526a0e62c605cc42d9a52e4,65af56226c4c8a399abc700f,2024-01-23_08h04.16.669,bars,2023.2.3,Win32,7.501875469,657b66ea316d21385b68909f,,,,,,,,,,,242.4704,243.4127,243.4128,243.8743,243.8744,244.0955,244.0955,90,90,263.7288,space,19.4457,,263.729,285.4303,space,21.4787,0.0003,0,1,1,8,1,160,bars/single008.png,bars/mask004.png,,,,,,,,,,,,,,,,,,,,,,,,,,,,,,,,,,,,,,,,,,,,,,,,,,,,,,,,,,,,,,,,
,,6526a0e62c605cc42d9a52e4,65af56226c4c8a399abc700f,2024-01-23_08h04.16.669,bars,2023.2.3,Win32,7.501875469,657b66ea316d21385b68909f,,,,,,,,,,,285.442,286.3759,286.3759,286.778,286.7781,286.9705,286.9705,129,129,359.8999,space,72.7445,,359.9,371.0878,space,10.9732,,0,2,2,4,1,95,bars/single004.png,bars/mask004.png,,,,,,,,,,,,,,,,,,,,,,,,,,,,,,,,,,,,,,,,,,,,,,,,,,,,,,,,,,,,,,,,
,,6526a0e62c605cc42d9a52e4,65af56226c4c8a399abc700f,2024-01-23_08h04.16.669,bars,2023.2.3,Win32,7.501875469,657b66ea316d21385b68909f,,,,,,,,,,,371.0987,372.0252,372.0252,372.4351,372.4352,372.6629,372.6629,67,67,392.4747,space,19.6278,,392.4747,404.8788,space,12.2045,,0,3,3,6,1,175,bars/single006.png,bars/mask005.png,,,,,,,,,,,,,,,,,,,,,,,,,,,,,,,,,,,,,,,,,,,,,,,,,,,,,,,,,,,,,,,,
,,6526a0e62c605cc42d9a52e4,65af56226c4c8a399abc700f,2024-01-23_08h04.16.669,bars,2023.2.3,Win32,7.501875469,657b66ea316d21385b68909f,,,,,,,,,,,404.8909,405.8359,405.8359,406.2621,406.2621,406.5242,406.5243,90,90,417.6526,space,10.9432,,417.6527,425.5573,space,7.7006,,0,4,4,7,1,45,bars/single007.png,bars/mask009.png,,,,,,,,,,,,,,,,,,,,,,,,,,,,,,,,,,,,,,,,,,,,,,,,,,,,,,,,,,,,,,,,
,,6526a0e62c605cc42d9a52e4,65af56226c4c8a399abc700f,2024-01-23_08h04.16.669,bars,2023.2.3,Win32,7.501875469,657b66ea316d21385b68909f,,,,,,,,,,,425.5691,426.5151,426.5152,426.9303,426.9303,427.1422,427.1422,0,180,436.1282,space,8.7995,,436.1283,444.1466,space,7.8151,,0,5,5,2,1,145,bars/single002.png,bars/mask003.png,,,,,,,,,,,,,,,,,,,,,,,,,,,,,,,,,,,,,,,,,,,,,,,,,,,,,,,,,,,,,,,,
,,6526a0e62c605cc42d9a52e4,65af56226c4c8a399abc700f,2024-01-23_08h04.16.669,bars,2023.2.3,Win32,7.501875469,657b66ea316d21385b68909f,,,,,,,,,,,444.1603,445.1205,445.1206,445.566,445.5661,445.9725,445.9725,90,90,460.0822,space,13.9129,0.0006,460.0822,464.2946,space,4.007,,0,6,6,1,1,20,bars/single001.png,bars/mask006.png,,,,,,,,,,,,,,,,,,,,,,,,,,,,,,,,,,,,,,,,,,,,,,,,,,,,,,,,,,,,,,,,
,,6526a0e62c605cc42d9a52e4,65af56226c4c8a399abc700f,2024-01-23_08h04.16.669,bars,2023.2.3,Win32,7.501875469,657b66ea316d21385b68909f,,,,,,,,,,,464.3106,465.2714,465.2716,465.7198,465.7199,465.9168,465.9168,69,69,472.7545,space,6.6475,,472.7546,477.819,space,4.861,,0,7,7,3,1,20,bars/single003.png,bars/mask005.png,,,,,,,,,,,,,,,,,,,,,,,,,,,,,,,,,,,,,,,,,,,,,,,,,,,,,,,,,,,,,,,,
,,6526a0e62c605cc42d9a52e4,65af56226c4c8a399abc700f,2024-01-23_08h04.16.669,bars,2023.2.3,Win32,7.501875469,657b66ea316d21385b68909f,,,,,,,,,,,477.8333,478.7591,478.7591,479.195,479.195,479.3906,479.3906,75,75,489.0305,space,9.4536,0.0005,489.0306,490.8717,space,1.641,0.0004,0,8,8,9,1,20,bars/single009.png,bars/mask006.png,,,,,,,,,,,,,,,,,,,,,,,,,,,,,,,,,,,,,,,,,,,,,,,,,,,,,,,,,,,,,,,,
,,6526a0e62c605cc42d9a52e4,65af56226c4c8a399abc700f,2024-01-23_08h04.16.669,bars,2023.2.3,Win32,7.501875469,657b66ea316d21385b68909f,,,,,,,,,,,490.8719,491.8008,491.8008,492.266,492.2661,492.4592,492.4593,79,79,497.9409,space,5.2964,0.0004,497.941,502.1171,space,3.972,,0,9,9,0,1,150,bars/single000.png,bars/mask006.png,,,,,,,,,,,,,,,,,,,,,,,,,,,,,,,,,,,,,,,,,,,,,,,,,,,,,,,,,,,,,,,,
,,6526a0e62c605cc42d9a52e4,65af56226c4c8a399abc700f,2024-01-23_08h04.16.669,bars,2023.2.3,Win32,7.501875469,657b66ea316d21385b68909f,,,,,,,,,,,,,,,,,,,,,,,,,,,,,,,,,,,,,502.1352,565.903,space,63.5728,,,,,,,,,,,,,,,,,,,,,,,,,,,,,,,,,,,,,,,,,,,,,,,,,,,,,,,,,,,,
,,6526a0e62c605cc42d9a52e4,65af56226c4c8a399abc700f,2024-01-23_08h04.16.669,bars,2023.2.3,Win32,7.501875469,657b66ea316d21385b68909f,,,,,,,,,,,,,,,,,,,,,,,,,,,,,,,,,,,,,,,,,,565.9194,570.2251,left,4.1185,,570.2253,9,1,571.1644,0,0,0,0,1,9,1,9,2,,,,,,,,,,,,,,,,,,,,,,,,,,,,,,,,,,,,,,,,,
,,6526a0e62c605cc42d9a52e4,65af56226c4c8a399abc700f,2024-01-23_08h04.16.669,bars,2023.2.3,Win32,7.501875469,657b66ea316d21385b68909f,,,,,,,,,,,,,,,,,,,,,,,,,,,,,,,,,,,,,,,,,,571.1649,573.706,left,2.3538,,573.706,10,1,574.6438,0,1,1,1,1,10,0,10,1,,,,,,,,,,,,,,,,,,,,,,,,,,,,,,,,,,,,,,,,,
,,6526a0e62c605cc42d9a52e4,65af56226c4c8a399abc700f,2024-01-23_08h04.16.669,bars,2023.2.3,Win32,7.501875469,657b66ea316d21385b68909f,,,,,,,,,,,,,,,,,,,,,,,,,,,,,,,,,,,,,,,,,,574.6441,578.5698,right,3.7392,,578.5698,2,2,579.5008,0,2,2,2,1,10,2,10,2,,,,,,,,,,,,,,,,,,,,,,,,,,,,,,,,,,,,,,,,,
,,6526a0e62c605cc42d9a52e4,65af56226c4c8a399abc700f,2024-01-23_08h04.16.669,bars,2023.2.3,Win32,7.501875469,657b66ea316d21385b68909f,,,,,,,,,,,,,,,,,,,,,,,,,,,,,,,,,,,,,,,,,,579.5116,580.8829,right,1.1888,,580.883,3,2,581.8092,0,3,3,3,1,8,4,7,3,,,,,,,,,,,,,,,,,,,,,,,,,,,,,,,,,,,,,,,,,
,,6526a0e62c605cc42d9a52e4,65af56226c4c8a399abc700f,2024-01-23_08h04.16.669,bars,2023.2.3,Win32,7.501875469,657b66ea316d21385b68909f,,,,,,,,,,,,,,,,,,,,,,,,,,,,,,,,,,,,,,,,,,581.8096,582.4008,left,0.4005,,582.4008,5,1,583.3419,0,4,4,4,1,6,2,5,1,,,,,,,,,,,,,,,,,,,,,,,,,,,,,,,,,,,,,,,,,
,,6526a0e62c605cc42d9a52e4,65af56226c4c8a399abc700f,2024-01-23_08h04.16.669,bars,2023.2.3,Win32,7.501875469,657b66ea316d21385b68909f,,,,,,,,,,,,,,,,,,,,,,,,,,,,,,,,,,,,,,,,,,583.3422,584.1261,left,0.5924,0.0005,584.1261,4,1,585.0752,0,5,5,5,1,4,4,4,4,,,,,,,,,,,,,,,,,,,,,,,,,,,,,,,,,,,,,,,,,
,,6526a0e62c605cc42d9a52e4,65af56226c4c8a399abc700f,2024-01-23_08h04.16.669,bars,2023.2.3,Win32,7.501875469,657b66ea316d21385b68909f,,,,,,,,,,,,,,,,,,,,,,,,,,,,,,,,,,,,,,,,,,585.0756,585.6715,right,0.4051,,585.6716,2,2,586.6122,0,6,6,6,1,2,2,1,2,,,,,,,,,,,,,,,,,,,,,,,,,,,,,,,,,,,,,,,,,
,,6526a0e62c605cc42d9a52e4,65af56226c4c8a399abc700f,2024-01-23_08h04.16.669,bars,2023.2.3,Win32,7.501875469,657b66ea316d21385b68909f,,,,,,,,,,,,,,,,,,,,,,,,,,,,,,,,,,,,,,,,,,586.6125,587.3924,left,0.5921,0.0003,587.3926,0,1,588.3185,0,7,7,7,1,0,0,0,1,,,,,,,,,,,,,,,,,,,,,,,,,,,,,,,,,,,,,,,,,
,,6526a0e62c605cc42d9a52e4,65af56226c4c8a399abc700f,2024-01-23_08h04.16.669,bars,2023.2.3,Win32,7.501875469,657b66ea316d21385b68909f,,,,,,,,,,,,,,,,,,,,,,,,,,,,,,,,,,,,,,,,,,588.3189,589.3001,right,0.7891,,589.3002,0,2,590.2366,0,8,8,8,1,0,2,1,0,,,,,,,,,,,,,,,,,,,,,,,,,,,,,,,,,,,,,,,,,
,,6526a0e62c605cc42d9a52e4,65af56226c4c8a399abc700f,2024-01-23_08h04.16.669,bars,2023.2.3,Win32,7.501875469,657b66ea316d21385b68909f,,,,,,,,,,,,,,,,,,,,,,,,,,,,,,,,,,,,,,,,,,590.2369,591.0274,left,0.5957,,591.0275,2,1,591.9631,0,9,9,9,1,2,4,2,3,,,,,,,,,,,,,,,,,,,,,,,,,,,,,,,,,,,,,,,,,
,,6526a0e62c605cc42d9a52e4,65af56226c4c8a399abc700f,2024-01-23_08h04.16.669,bars,2023.2.3,Win32,7.501875469,657b66ea316d21385b68909f,,,,,,,,,,,,,,,,,,,,,,,,,,,,,,,,,,,,,,,,,,591.9635,592.5679,left,0.409,0.0003,592.5679,0,1,593.5043,0,10,10,10,1,0,2,0,3,,,,,,,,,,,,,,,,,,,,,,,,,,,,,,,,,,,,,,,,,
,,6526a0e62c605cc42d9a52e4,65af56226c4c8a399abc700f,2024-01-23_08h04.16.669,bars,2023.2.3,Win32,7.501875469,657b66ea316d21385b68909f,,,,,,,,,,,,,,,,,,,,,,,,,,,,,,,,,,,,,,,,,,593.5047,594.6996,right,1.0055,,594.6996,3,2,595.6459,0,11,11,11,1,0,4,0,3,,,,,,,,,,,,,,,,,,,,,,,,,,,,,,,,,,,,,,,,,
,,6526a0e62c605cc42d9a52e4,65af56226c4c8a399abc700f,2024-01-23_08h04.16.669,bars,2023.2.3,Win32,7.501875469,657b66ea316d21385b68909f,,,,,,,,,,,,,,,,,,,,,,,,,,,,,,,,,,,,,,,,,,595.6463,597.0489,right,1.2114,0.0004,597.0489,6,2,598.0165,0,12,12,12,1,2,6,1,6,,,,,,,,,,,,,,,,,,,,,,,,,,,,,,,,,,,,,,,,,
,,6526a0e62c605cc42d9a52e4,65af56226c4c8a399abc700f,2024-01-23_08h04.16.669,bars,2023.2.3,Win32,7.501875469,657b66ea316d21385b68909f,,,,,,,,,,,,,,,,,,,,,,,,,,,,,,,,,,,,,,,,,,598.0168,598.8061,right,0.6013,0.0005,598.8061,3,2,599.7399,0,13,13,13,1,0,4,1,3,,,,,,,,,,,,,,,,,,,,,,,,,,,,,,,,,,,,,,,,,
,,6526a0e62c605cc42d9a52e4,65af56226c4c8a399abc700f,2024-01-23_08h04.16.669,bars,2023.2.3,Win32,7.501875469,657b66ea316d21385b68909f,,,,,,,,,,,,,,,,,,,,,,,,,,,,,,,,,,,,,,,,,,599.7402,600.9087,right,0.98,0.0004,600.9087,7,2,601.8424,0,14,14,14,1,2,6,2,7,,,,,,,,,,,,,,,,,,,,,,,,,,,,,,,,,,,,,,,,,
,,6526a0e62c605cc42d9a52e4,65af56226c4c8a399abc700f,2024-01-23_08h04.16.669,bars,2023.2.3,Win32,7.501875469,657b66ea316d21385b68909f,,,,,,,,,,,,,,,,,,,,,,,,,,,,,,,,,,,,,,,,,,601.8427,602.6292,right,0.5988,,602.6293,9,2,603.5597,0,15,15,15,1,4,8,3,9,,,,,,,,,,,,,,,,,,,,,,,,,,,,,,,,,,,,,,,,,
,,6526a0e62c605cc42d9a52e4,65af56226c4c8a399abc700f,2024-01-23_08h04.16.669,bars,2023.2.3,Win32,7.501875469,657b66ea316d21385b68909f,,,,,,,,,,,,,,,,,,,,,,,,,,,,,,,,,,,,,,,,,,603.5601,604.3395,right,0.5916,,604.3396,7,2,605.2659,0,16,16,16,1,6,6,7,7,,,,,,,,,,,,,,,,,,,,,,,,,,,,,,,,,,,,,,,,,
,,6526a0e62c605cc42d9a52e4,65af56226c4c8a399abc700f,2024-01-23_08h04.16.669,bars,2023.2.3,Win32,7.501875469,657b66ea316d21385b68909f,,,,,,,,,,,,,,,,,,,,,,,,,,,,,,,,,,,,,,,,,,605.2662,606.2442,left,0.7813,,606.2443,9,1,607.182,0,17,17,17,1,8,4,9,5,,,,,,,,,,,,,,,,,,,,,,,,,,,,,,,,,,,,,,,,,
,,6526a0e62c605cc42d9a52e4,65af56226c4c8a399abc700f,2024-01-23_08h04.16.669,bars,2023.2.3,Win32,7.501875469,657b66ea316d21385b68909f,,,,,,,,,,,,,,,,,,,,,,,,,,,,,,,,,,,,,,,,,,607.1825,608.1615,left,0.782,0.0004,608.1615,5,1,609.0883,0,18,18,18,1,6,2,5,1,,,,,,,,,,,,,,,,,,,,,,,,,,,,,,,,,,,,,,,,,
,,6526a0e62c605cc42d9a52e4,65af56226c4c8a399abc700f,2024-01-23_08h04.16.669,bars,2023.2.3,Win32,7.501875469,657b66ea316d21385b68909f,,,,,,,,,,,,,,,,,,,,,,,,,,,,,,,,,,,,,,,,,,609.0887,610.0759,right,0.7857,,610.076,0,2,611.021,0,19,19,19,1,8,0,7,0,,,,,,,,,,,,,,,,,,,,,,,,,,,,,,,,,,,,,,,,,
,,6526a0e62c605cc42d9a52e4,65af56226c4c8a399abc700f,2024-01-23_08h04.16.669,bars,2023.2.3,Win32,7.501875469,657b66ea316d21385b68909f,,,,,,,,,,,,,,,,,,,,,,,,,,,,,,,,,,,,,,,,,,,,,,,,,,,,,,,,,,,,611.0216,660.8545,space,49.6396,,,,,,,,,,,,,,,,,,,,,,,,,,,,,,,,,,,,,
,,6526a0e62c605cc42d9a52e4,65af56226c4c8a399abc700f,2024-01-23_08h04.16.669,bars,2023.2.3,Win32,7.501875469,657b66ea316d21385b68909f,,,,,,,,,,,663.4938,664.488,,,664.9307,665.34,,133,133,,,,,,,,,,,,,,,,bars/008.png,bars/mask004.png,,,,,,,,,,,,0,1,,,,,,,2,8,2,9,,,,,,660.8738,663.4863,space,2.4203,,664.4882,664.9307,665.3403,690.6818,space,25.1476,0.0006,690.6819,23,47,691.628,691.6283,703.2487,space,11.3982,,0,0,0,0,1,110,0,,,,,,,,
,,6526a0e62c605cc42d9a52e4,65af56226c4c8a399abc700f,2024-01-23_08h04.16.669,bars,2023.2.3,Win32,7.501875469,657b66ea316d21385b68909f,,,,,,,,,,,703.2608,704.2039,,,704.6947,704.9024,,1,1,,,,,,,,,,,,,,,,bars/031.png,bars/mask006.png,,,,,,,,,,,,0,2,,,,,,,4,10,5,10,,,,,,,,,,,704.204,704.6947,704.9025,707.7961,space,2.7089,0.0005,707.7962,61,34,708.7254,708.7254,713.803,space,4.8732,0.0006,0,1,1,1,1,120,35,,,,,,,,
,,6526a0e62c605cc42d9a52e4,65af56226c4c8a399abc700f,2024-01-23_08h04.16.669,bars,2023.2.3,Win32,7.501875469,657b66ea316d21385b68909f,,,,,,,,,,,713.8137,714.7474,,,715.1986,715.3954,,88,88,,,,,,,,,,,,,,,,bars/011.png,bars/mask003.png,,,,,,,,,,,,6,2,,,,,,,6,8,7,7,,,,,,,,,,,714.7474,715.1986,715.3954,719.3771,space,3.7935,,719.3771,72,3,720.3296,720.3296,722.7923,space,2.264,,0,2,2,2,1,160,85,,,,,,,,
,,6526a0e62c605cc42d9a52e4,65af56226c4c8a399abc700f,2024-01-23_08h04.16.669,bars,2023.2.3,Win32,7.501875469,657b66ea316d21385b68909f,,,,,,,,,,,722.7927,723.746,,,724.1795,724.384,,16,16,,,,,,,,,,,,,,,,bars/006.png,bars/mask001.png,,,,,,,,,,,,3,1,,,,,,,8,10,7,9,,,,,,,,,,,723.7462,724.1794,724.384,737.5823,space,13.0085,,737.5823,19,84,738.5499,738.5499,741.886,space,3.1212,,0,3,3,3,1,35,100,,,,,,,,
,,6526a0e62c605cc42d9a52e4,65af56226c4c8a399abc700f,2024-01-23_08h04.16.669,bars,2023.2.3,Win32,7.501875469,657b66ea316d21385b68909f,,,,,,,,,,,741.8864,742.8204,,,743.2494,743.4467,,145,145,,,,,,,,,,,,,,,,bars/043.png,bars/mask005.png,,,,,,,,,,,,4,2,,,,,,,10,8,10,7,,,,,,,,,,,742.8205,743.2494,743.4467,748.1678,space,4.5293,0.0005,748.1679,65,15,749.1424,749.1425,761.8771,space,12.5365,0.0006,0,4,4,4,1,30,130,,,,,,,,
,,6526a0e62c605cc42d9a52e4,65af56226c4c8a399abc700f,2024-01-23_08h04.16.669,bars,2023.2.3,Win32,7.501875469,657b66ea316d21385b68909f,,,,,,,,,,,761.8938,762.8597,,,763.2864,763.4817,,0,0,,,,,,,,,,,,,,,,bars/019.png,bars/mask006.png,,,,,,,,,,,,0,1,,,,,,,8,6,9,5,,,,,,,,,,,762.8598,763.2863,763.4818,770.9833,space,7.3009,0.0004,770.9833,45,75,771.9613,771.9615,776.0422,space,3.8824,,0,5,5,5,1,45,105,,,,,,,,
,,6526a0e62c605cc42d9a52e4,65af56226c4c8a399abc700f,2024-01-23_08h04.16.669,bars,2023.2.3,Win32,7.501875469,657b66ea316d21385b68909f,,,,,,,,,,,776.0533,776.9794,,,777.4463,777.6469,,125,125,,,,,,,,,,,,,,,,bars/007.png,bars/mask009.png,,,,,,,,,,,,0,1,,,,,,,6,4,5,5,,,,,,,,,,,776.9795,777.4462,777.6469,783.5728,space,5.7396,0.0005,783.5728,50,70,784.5134,784.5135,789.2126,space,4.4998,0.0006,0,6,6,6,1,175,55,,,,,,,,
,,6526a0e62c605cc42d9a52e4,65af56226c4c8a399abc700f,2024-01-23_08h04.16.669,bars,2023.2.3,Win32,7.501875469,657b66ea316d21385b68909f,,,,,,,,,,,789.2238,790.1494,,,790.5315,790.734,,117,117,,,,,,,,,,,,,,,,bars/006.png,bars/mask006.png,,,,,,,,,,,,0,2,,,,,,,8,2,7,1,,,,,,,,,,,790.1496,790.5315,790.7341,792.0859,space,1.167,,792.0859,82,17,793.0295,793.0295,794.6589,space,1.4335,,0,7,7,7,1,35,100,,,,,,,,
,,6526a0e62c605cc42d9a52e4,65af56226c4c8a399abc700f,2024-01-23_08h04.16.669,bars,2023.2.3,Win32,7.501875469,657b66ea316d21385b68909f,,,,,,,,,,,794.6592,795.5991,,,795.991,796.2588,,42,42,,,,,,,,,,,,,,,,bars/007.png,bars/mask007.png,,,,,,,,,,,,0,2,,,,,,,6,0,6,0,,,,,,,,,,,795.5991,795.991,796.2589,803.9603,space,7.5142,,803.9604,47,13,804.8909,804.891,806.7379,space,1.6428,,0,8,8,8,1,175,55,,,,,,,,
,,6526a0e62c605cc42d9a52e4,65af56226c4c8a399abc700f,2024-01-23_08h04.16.669,bars,2023.2.3,Win32,7.501875469,657b66ea316d21385b68909f,,,,,,,,,,,806.7382,807.6762,,,808.0934,808.3918,,18,18,,,,,,,,,,,,,,,,bars/047.png,bars/mask000.png,,,,,,,,,,,,4,1,,,,,,,4,2,4,0,,,,,,,,,,,807.6762,808.0934,808.3919,809.9373,space,1.3613,,809.9373,3,52,810.8691,810.8691,813.1164,space,2.0503,,0,9,9,9,1,15,70,,,,,,,,
,,6526a0e62c605cc42d9a52e4,65af56226c4c8a399abc700f,2024-01-23_08h04.16.669,bars,2023.2.3,Win32,7.501875469,657b66ea316d21385b68909f,,,,,,,,,,,813.1169,814.0472,,,814.4304,814.6273,,3,3,,,,,,,,,,,,,,,,bars/032.png,bars/mask009.png,,,,,,,,,,,,2,2,,,,,,,2,4,3,4,,,,,,,,,,,814.0472,814.4303,814.6273,816.5782,space,1.7656,,816.5782,58,17,817.5254,817.5254,818.9781,space,1.2473,,0,10,10,10,1,125,20,,,,,,,,
,,6526a0e62c605cc42d9a52e4,65af56226c4c8a399abc700f,2024-01-23_08h04.16.669,bars,2023.2.3,Win32,7.501875469,657b66ea316d21385b68909f,,,,,,,,,,,818.9784,819.9142,,,820.3811,820.5718,,100,100,,,,,,,,,,,,,,,,bars/036.png,bars/mask005.png,,,,,,,,,,,,0,1,,,,,,,4,6,5,6,,,,,,,,,,,819.9142,820.381,820.5719,822.1299,space,1.3699,,822.13,45,80,823.0765,823.0766,824.3154,space,1.0343,,0,11,11,11,1,145,20,,,,,,,,
,,6526a0e62c605cc42d9a52e4,65af56226c4c8a399abc700f,2024-01-23_08h04.16.669,bars,2023.2.3,Win32,7.501875469,657b66ea316d21385b68909f,,,,,,,,,,,824.3158,825.2525,,,825.7244,825.9181,,30,30,,,,,,,,,,,,,,,,bars/045.png,bars/mask006.png,,,,,,,,,,,,1,2,,,,,,,2,4,3,3,,,,,,,,,,,825.2526,825.7243,825.9181,832.6899,space,6.5854,,832.6899,70,20,833.6179,833.618,835.052,space,1.2261,,0,12,12,12,1,100,10,,,,,,,,
,,6526a0e62c605cc42d9a52e4,65af56226c4c8a399abc700f,2024-01-23_08h04.16.669,bars,2023.2.3,Win32,7.501875469,657b66ea316d21385b68909f,,,,,,,,,,,835.0524,835.9856,,,836.3862,836.5781,,112,112,,,,,,,,,,,,,,,,bars/048.png,bars/mask004.png,,,,,,,,,,,,0,1,,,,,,,4,6,2,5,,,,,,,,,,,835.9856,836.3861,836.5781,848.614,space,11.8485,0.0006,848.6141,62,63,849.5442,849.5442,850.984,space,1.2274,0.0006,0,13,13,13,1,50,175,,,,,,,,
,,6526a0e62c605cc42d9a52e4,65af56226c4c8a399abc700f,2024-01-23_08h04.16.669,bars,2023.2.3,Win32,7.501875469,657b66ea316d21385b68909f,,,,,,,,,,,850.9842,851.9144,,,852.3646,852.5592,,126,126,,,,,,,,,,,,,,,,bars/039.png,bars/mask001.png,,,,,,,,,,,,3,2,,,,,,,2,8,2,10,,,,,,,,,,,851.9144,852.3645,852.5592,865.6115,space,12.8606,,865.6116,49,21,866.5568,866.5569,869.4386,space,2.6725,0.0007,0,14,14,14,1,175,105,,,,,,,,
,,6526a0e62c605cc42d9a52e4,65af56226c4c8a399abc700f,2024-01-23_08h04.16.669,bars,2023.2.3,Win32,7.501875469,657b66ea316d21385b68909f,,,,,,,,,,,869.4389,870.3613,,,870.8295,871.0199,,49,49,,,,,,,,,,,,,,,,bars/013.png,bars/mask004.png,,,,,,,,,,,,0,1,,,,,,,0,6,0,5,,,,,,,,,,,870.3613,870.8295,871.0199,883.4426,space,12.2371,0.0006,883.4426,26,39,884.38,884.3801,886.0261,space,1.4409,,0,15,15,15,1,75,10,,,,,,,,
,,6526a0e62c605cc42d9a52e4,65af56226c4c8a399abc700f,2024-01-23_08h04.16.669,bars,2023.2.3,Win32,7.501875469,657b66ea316d21385b68909f,,,,,,,,,,,886.0265,886.9594,,,887.3862,887.579,,25,25,,,,,,,,,,,,,,,,bars/033.png,bars/mask007.png,,,,,,,,,,,,1,1,,,,,,,2,4,1,3,,,,,,,,,,,886.9595,887.3862,887.579,888.9639,space,1.189,0.0006,888.9639,0,50,889.9021,889.9022,891.7265,space,1.6276,0.0004,0,16,16,16,1,25,155,,,,,,,,
,,6526a0e62c605cc42d9a52e4,65af56226c4c8a399abc700f,2024-01-23_08h04.16.669,bars,2023.2.3,Win32,7.501875469,657b66ea316d21385b68909f,,,,,,,,,,,891.7268,892.6555,,,893.0677,893.2593,,16,16,,,,,,,,,,,,,,,,bars/002.png,bars/mask007.png,,,,,,,,,,,,0,1,,,,,,,4,6,3,5,,,,,,,,,,,892.6555,893.0676,893.2594,896.606,space,3.1607,0.0007,896.606,66,69,897.5643,897.5643,898.5841,space,0.8223,,0,17,17,17,1,130,85,,,,,,,,
,,6526a0e62c605cc42d9a52e4,65af56226c4c8a399abc700f,2024-01-23_08h04.16.669,bars,2023.2.3,Win32,7.501875469,657b66ea316d21385b68909f,,,,,,,,,,,898.5845,899.516,,,899.9019,900.094,,13,13,,,,,,,,,,,,,,,,bars/008.png,bars/mask009.png,,,,,,,,,,,,2,2,,,,,,,2,4,2,3,,,,,,,,,,,899.5161,899.9018,900.094,910.5179,space,10.2395,0.0006,910.5179,83,13,911.4803,911.4804,913.5463,space,1.8564,0.0006,0,18,18,18,1,110,0,,,,,,,,
,,6526a0e62c605cc42d9a52e4,65af56226c4c8a399abc700f,2024-01-23_08h04.16.669,bars,2023.2.3,Win32,7.501875469,657b66ea316d21385b68909f,,,,,,,,,,,913.5466,914.5088,,,914.9134,915.1213,,5,5,,,,,,,,,,,,,,,,bars/011.png,bars/mask006.png,,,,,,,,,,,,0,1,,,,,,,0,2,0,1,,,,,,,,,,,914.509,914.9132,915.1213,917.4531,space,2.124,,917.4532,25,80,918.43,918.43,919.4821,space,0.8457,,0,19,19,19,1,160,85,,,,,,,,
,,6526a0e62c605cc42d9a52e4,65af56226c4c8a399abc700f,2024-01-23_08h04.16.669,bars,2023.2.3,Win32,7.501875469,657b66ea316d21385b68909f,,,,,,,,,,,919.4826,920.4357,,,920.8194,921.0447,,90,90,,,,,,,,,,,,,,,,bars/027.png,bars/mask002.png,,,,,,,,,,,,0,1,,,,,,,2,0,1,0,,,,,,,,,,,920.4357,920.8193,921.0447,937.5044,space,16.2701,0.0005,937.5044,20,40,938.4827,938.4827,940.2446,space,1.5484,0.0008,0,20,20,20,1,110,50,,,,,,,,
,,6526a0e62c605cc42d9a52e4,65af56226c4c8a399abc700f,2024-01-23_08h04.16.669,bars,2023.2.3,Win32,7.501875469,657b66ea316d21385b68909f,,,,,,,,,,,940.245,941.2452,,,941.6883,941.9109,,111,111,,,,,,,,,,,,,,,,bars/042.png,bars/mask009.png,,,,,,,,,,,,0,1,,,,,,,0,2,0,3,,,,,,,,,,,941.2452,941.6882,941.9109,947.6806,space,5.5798,0.0006,947.6807,34,36,948.6709,948.6709,950.9844,space,2.0864,0.0006,0,21,21,21,1,145,75,,,,,,,,
,,6526a0e62c605cc42d9a52e4,65af56226c4c8a399abc700f,2024-01-23_08h04.16.669,bars,2023.2.3,Win32,7.501875469,657b66ea316d21385b68909f,,,,,,,,,,,950.9847,951.9285,,,952.4128,952.6059,,21,21,,,,,,,,,,,,,,,,bars/001.png,bars/mask002.png,,,,,,,,,,,,0,2,,,,,,,0,0,0,2,,,,,,,,,,,951.9285,952.4127,952.606,954.3785,space,1.5856,0.0006,954.3786,71,64,955.3127,955.3128,956.3476,space,0.8277,,0,22,22,22,1,130,85,,,,,,,,
,,6526a0e62c605cc42d9a52e4,65af56226c4c8a399abc700f,2024-01-23_08h04.16.669,bars,2023.2.3,Win32,7.501875469,657b66ea316d21385b68909f,,,,,,,,,,,956.3478,957.2801,,,957.7129,957.9053,,57,57,,,,,,,,,,,,,,,,bars/014.png,bars/mask001.png,,,,,,,,,,,,0,1,,,,,,,0,0,2,1,,,,,,,,,,,957.2802,957.7128,957.9053,974.7794,space,16.6854,0.0005,974.7794,23,57,975.7116,975.7117,976.9436,space,1.0345,,0,23,23,23,1,80,0,,,,,,,,
,,6526a0e62c605cc42d9a52e4,65af56226c4c8a399abc700f,2024-01-23_08h04.16.669,bars,2023.2.3,Win32,7.501875469,657b66ea316d21385b68909f,,,,,,,,,,,976.9439,977.8728,,,978.345,978.5374,,42,42,,,,,,,,,,,,,,,,bars/025.png,bars/mask002.png,,,,,,,,,,,,2,2,,,,,,,0,0,0,2,,,,,,,,,,,977.8729,978.345,978.5374,981.9047,space,3.1821,,981.9047,63,2,982.839,982.839,984.6771,space,1.6283,0.0006,0,24,24,24,1,105,40,,,,,,,,
,,6526a0e62c605cc42d9a52e4,65af56226c4c8a399abc700f,2024-01-23_08h04.16.669,bars,2023.2.3,Win32,7.501875469,657b66ea316d21385b68909f,,,,,,,,,,,984.6773,985.6193,,,986.0089,986.2024,,56,56,,,,,,,,,,,,,,,,bars/014.png,bars/mask002.png,,,,,,,,,,,,0,1,,,,,,,0,0,0,0,,,,,,,,,,,985.6194,986.0089,986.2024,995.9159,space,9.5232,0.0006,995.916,24,56,996.8503,996.8503,998.0872,space,1.0277,0.0006,0,25,25,25,1,80,0,,,,,,,,
,,6526a0e62c605cc42d9a52e4,65af56226c4c8a399abc700f,2024-01-23_08h04.16.669,bars,2023.2.3,Win32,7.501875469,657b66ea316d21385b68909f,,,,,,,,,,,998.0877,999.0193,,,999.4023,999.6032,,142,142,,,,,,,,,,,,,,,,bars/036.png,bars/mask001.png,,,,,,,,,,,,3,1,,,,,,,2,0,3,0,,,,,,,,,,,999.0193,999.4023,999.6032,1008.1369,space,8.3472,,1008.137,3,58,1009.0697,1009.0698,1013.8109,space,4.5382,0.0005,0,26,26,26,1,145,20,,,,,,,,
,,6526a0e62c605cc42d9a52e4,65af56226c4c8a399abc700f,2024-01-23_08h04.16.669,bars,2023.2.3,Win32,7.501875469,657b66ea316d21385b68909f,,,,,,,,,,,1013.8221,1014.7612,,,1015.162,1015.3547,,157,157,,,,,,,,,,,,,,,,bars/014.png,bars/mask004.png,,,,,,,,,,,,0,2,,,,,,,4,2,5,1,,,,,,,,,,,1014.7612,1015.162,1015.3547,1020.1572,space,4.6165,,1020.1572,77,23,1021.0886,1021.0887,1022.3111,space,1.0193,,0,27,27,27,1,80,0,,,,,,,,
,,6526a0e62c605cc42d9a52e4,65af56226c4c8a399abc700f,2024-01-23_08h04.16.669,bars,2023.2.3,Win32,7.501875469,657b66ea316d21385b68909f,,,,,,,,,,,1022.3113,1023.2513,,,1023.6498,1023.8407,,78,78,,,,,,,,,,,,,,,,bars/009.png,bars/mask004.png,,,,,,,,,,,,0,2,,,,,,,6,4,7,4,,,,,,,,,,,1023.2513,1023.6497,1023.8407,1030.561,space,6.5285,,1030.561,63,27,1031.5097,1031.5097,1032.74,space,1.026,,0,28,28,28,1,15,105,,,,,,,,
,,6526a0e62c605cc42d9a52e4,65af56226c4c8a399abc700f,2024-01-23_08h04.16.669,bars,2023.2.3,Win32,7.501875469,657b66ea316d21385b68909f,,,,,,,,,,,1032.7402,1033.671,,,1034.1625,1034.3538,,127,127,,,,,,,,,,,,,,,,bars/049.png,bars/mask005.png,,,,,,,,,,,,2,2,,,,,,,4,2,4,3,,,,,,,,,,,1033.6711,1034.1624,1034.3538,1038.2383,space,3.6995,0.0006,1038.2384,33,12,1039.1796,1039.1797,1040.8215,space,1.437,,0,29,29,29,1,160,115,,,,,,,,
,,6526a0e62c605cc42d9a52e4,65af56226c4c8a399abc700f,2024-01-23_08h04.16.669,bars,2023.2.3,Win32,7.501875469,657b66ea316d21385b68909f,,,,,,,,,,,1040.8218,1041.7766,,,1042.2301,1042.4278,,25,25,,,,,,,,,,,,,,,,bars/015.png,bars/mask002.png,,,,,,,,,,,,0,2,,,,,,,6,0,8,0,,,,,,,,,,,1041.7767,1042.2301,1042.4279,1049.0264,space,6.4135,0.0007,1049.0265,85,45,1050.0039,1050.0039,1051.7167,space,1.4938,0.0006,0,30,30,30,1,110,160,,,,,,,,
,,6526a0e62c605cc42d9a52e4,65af56226c4c8a399abc700f,2024-01-23_08h04.16.669,bars,2023.2.3,Win32,7.501875469,657b66ea316d21385b68909f,,,,,,,,,,,1051.7171,1052.6953,,,1053.1307,1053.3338,,27,27,,,,,,,,,,,,,,,,bars/046.png,bars/mask008.png,,,,,,,,,,,,0,1,,,,,,,4,2,5,3,,,,,,,,,,,1052.6955,1053.1306,1053.3339,1054.5479,space,1.0165,0.0007,1054.548,52,58,1055.5452,1055.5453,1056.5961,space,0.8529,,0,31,31,31,1,155,85,,,,,,,,
,,6526a0e62c605cc42d9a52e4,65af56226c4c8a399abc700f,2024-01-23_08h04.16.669,bars,2023.2.3,Win32,7.501875469,657b66ea316d21385b68909f,,,,,,,,,,,1056.5966,1057.5665,,,1058.0048,1058.2061,,160,160,,,,,,,,,,,,,,,,bars/017.png,bars/mask000.png,,,,,,,,,,,,1,1,,,,,,,2,4,1,4,,,,,,,,,,,1057.5665,1058.0047,1058.2062,1060.6421,space,2.2468,,1060.6421,15,65,1061.5984,1061.5985,1063.3119,space,1.504,,0,32,32,32,1,145,45,,,,,,,,
,,6526a0e62c605cc42d9a52e4,65af56226c4c8a399abc700f,2024-01-23_08h04.16.669,bars,2023.2.3,Win32,7.501875469,657b66ea316d21385b68909f,,,,,,,,,,,1063.3123,1064.2921,,,1064.7442,1064.9427,,107,107,,,,,,,,,,,,,,,,bars/038.png,bars/mask009.png,,,,,,,,,,,,0,2,,,,,,,4,2,4,1,,,,,,,,,,,1064.2921,1064.7442,1064.9428,1072.0847,space,6.9536,,1072.0848,58,37,1073.0661,1073.0662,1074.2962,space,1.0264,,0,33,33,33,1,165,70,,,,,,,,
,,6526a0e62c605cc42d9a52e4,65af56226c4c8a399abc700f,2024-01-23_08h04.16.669,bars,2023.2.3,Win32,7.501875469,657b66ea316d21385b68909f,,,,,,,,,,,1074.2965,1075.2446,,,1075.7253,1075.9171,,90,90,,,,,,,,,,,,,,,,bars/000.png,bars/mask000.png,,,,,,,,,,,,0,1,,,,,,,2,4,4,5,,,,,,,,,,,1075.2447,1075.7252,1075.9172,1079.473,space,3.3699,,1079.473,50,55,1080.4015,1080.4016,1081.6289,space,1.0224,0.0007,0,34,34,34,1,40,145,,,,,,,,
,,6526a0e62c605cc42d9a52e4,65af56226c4c8a399abc700f,2024-01-23_08h04.16.669,bars,2023.2.3,Win32,7.501875469,657b66ea316d21385b68909f,,,,,,,,,,,1081.6292,1082.5601,,,1082.9404,1083.1371,,57,57,,,,,,,,,,,,,,,,bars/049.png,bars/mask008.png,,,,,,,,,,,,0,2,,,,,,,4,6,5,6,,,,,,,,,,,1082.5601,1082.9404,1083.1371,1085.0935,space,1.7687,,1085.0935,77,58,1086.0281,1086.0282,1087.0601,space,0.8255,,0,35,35,35,1,160,115,,,,,,,,
,,6526a0e62c605cc42d9a52e4,65af56226c4c8a399abc700f,2024-01-23_08h04.16.669,bars,2023.2.3,Win32,7.501875469,657b66ea316d21385b68909f,,,,,,,,,,,1087.0604,1087.9854,,,1088.4542,1088.6535,,23,23,,,,,,,,,,,,,,,,bars/037.png,bars/mask008.png,,,,,,,,,,,,0,1,,,,,,,6,4,6,4,,,,,,,,,,,1087.9854,1088.4542,1088.6535,1104.1961,space,15.3558,,1104.1962,53,82,1105.1281,1105.1282,1107.1846,space,1.8467,0.0006,0,36,36,36,1,150,105,,,,,,,,
,,6526a0e62c605cc42d9a52e4,65af56226c4c8a399abc700f,2024-01-23_08h04.16.669,bars,2023.2.3,Win32,7.501875469,657b66ea316d21385b68909f,,,,,,,,,,,1107.1849,1108.1073,,,1108.5382,1108.7279,,30,30,,,,,,,,,,,,,,,,bars/020.png,bars/mask002.png,,,,,,,,,,,,0,2,,,,,,,8,2,9,2,,,,,,,,,,,1108.1073,1108.5382,1108.7279,1125.9267,space,17.01,0.0007,1125.9268,85,40,1126.8537,1126.8537,1154.9431,space,27.881,,0,37,37,37,1,115,170,,,,,,,,
,,6526a0e62c605cc42d9a52e4,65af56226c4c8a399abc700f,2024-01-23_08h04.16.669,bars,2023.2.3,Win32,7.501875469,657b66ea316d21385b68909f,,,,,,,,,,,1154.9582,1155.8865,,,1156.3589,1156.5496,,133,133,,,,,,,,,,,,,,,,bars/016.png,bars/mask009.png,,,,,,,,,,,,0,2,,,,,,,10,4,7,4,,,,,,,,,,,1155.8866,1156.3588,1156.5496,1158.6814,space,1.9472,,1158.6814,87,32,1159.6208,1159.6209,1162.057,space,2.2336,,0,38,38,38,1,40,165,,,,,,,,
,,6526a0e62c605cc42d9a52e4,65af56226c4c8a399abc700f,2024-01-23_08h04.16.669,bars,2023.2.3,Win32,7.501875469,657b66ea316d21385b68909f,,,,,,,,,,,1162.0573,1162.9879,,,1163.3776,1163.5726,,171,171,,,,,,,,,,,,,,,,bars/045.png,bars/mask006.png,,,,,,,,,,,,2,2,,,,,,,10,6,10,5,,,,,,,,,,,1162.9879,1163.3776,1163.5727,1165.7106,space,1.9356,0.0005,1165.7106,71,19,1166.6446,1166.6447,1169.2888,space,2.4399,0.0007,0,39,39,39,1,100,10,,,,,,,,
,,6526a0e62c605cc42d9a52e4,65af56226c4c8a399abc700f,2024-01-23_08h04.16.669,bars,2023.2.3,Win32,7.501875469,657b66ea316d21385b68909f,,,,,,,,,,,1169.289,1170.2098,,,1170.594,1170.7852,,162,162,,,,,,,,,,,,,,,,bars/016.png,bars/mask000.png,,,,,,,,,,,,4,2,,,,,,,8,4,10,4,,,,,,,,,,,1170.2099,1170.5939,1170.7852,1173.1136,space,2.1421,,1173.1137,58,3,1174.0403,1174.0403,1175.8815,space,1.631,,0,40,40,40,1,40,165,,,,,,,,
,,6526a0e62c605cc42d9a52e4,65af56226c4c8a399abc700f,2024-01-23_08h04.16.669,bars,2023.2.3,Win32,7.501875469,657b66ea316d21385b68909f,,,,,,,,,,,1175.8819,1176.808,,,1177.268,1177.4596,,154,154,,,,,,,,,,,,,,,,bars/005.png,bars/mask001.png,,,,,,,,,,,,1,2,,,,,,,10,2,10,2,,,,,,,,,,,1176.8081,1177.268,1177.4596,1183.1367,space,5.4916,,1183.1367,36,14,1184.08,1184.08,1190.8002,space,6.5123,0.0006,0,41,41,41,1,10,140,,,,,,,,
,,6526a0e62c605cc42d9a52e4,65af56226c4c8a399abc700f,2024-01-23_08h04.16.669,bars,2023.2.3,Win32,7.501875469,657b66ea316d21385b68909f,,,,,,,,,,,1190.8111,1191.7315,,,1192.1158,1192.3991,,68,68,,,,,,,,,,,,,,,,bars/016.png,bars/mask003.png,,,,,,,,,,,,1,1,,,,,,,10,0,10,0,,,,,,,,,,,1191.7316,1192.1157,1192.3991,1197.1066,space,4.5215,,1197.1066,28,83,1198.0313,1198.0313,1209.1777,space,10.9413,,0,42,42,42,1,40,165,,,,,,,,
,,6526a0e62c605cc42d9a52e4,65af56226c4c8a399abc700f,2024-01-23_08h04.16.669,bars,2023.2.3,Win32,7.501875469,657b66ea316d21385b68909f,,,,,,,,,,,1209.1931,1210.1325,,,1210.5173,1210.7082,,131,131,,,,,,,,,,,,,,,,bars/037.png,bars/mask000.png,,,,,,,,,,,,3,1,,,,,,,8,0,8,1,,,,,,,,,,,1210.1326,1210.5173,1210.7083,1225.7112,space,14.8173,,1225.7112,19,26,1226.7161,1226.7161,1233.9325,space,7.0123,,0,43,43,43,1,150,105,,,,,,,,
,,6526a0e62c605cc42d9a52e4,65af56226c4c8a399abc700f,2024-01-23_08h04.16.669,bars,2023.2.3,Win32,7.501875469,657b66ea316d21385b68909f,,,,,,,,,,,1233.9474,1234.9141,,,1235.319,1235.5158,,35,35,,,,,,,,,,,,,,,,bars/000.png,bars/mask004.png,,,,,,,,,,,,8,1,,,,,,,10,2,10,0,,,,,,,,,,,1234.9141,1235.3189,1235.5159,1243.485,space,7.7802,0.0005,1243.485,5,70,1244.4466,1244.4466,1248.2718,space,3.6178,0.0005,0,44,44,44,1,40,145,,,,,,,,
,,6526a0e62c605cc42d9a52e4,65af56226c4c8a399abc700f,2024-01-23_08h04.16.669,bars,2023.2.3,Win32,7.501875469,657b66ea316d21385b68909f,,,,,,,,,,,1248.2873,1249.2405,,,1249.6451,1249.8554,,33,213,,,,,,,,,,,,,,,,bars/049.png,bars/mask004.png,,,,,,,,,,,,0,1,,,,,,,10,4,10,4,,,,,,,,,,,1249.2405,1249.645,1249.8554,1262.5965,space,12.5516,0.0005,1262.5965,53,82,1263.5557,1263.5558,1267.4226,space,3.6529,,0,45,45,45,1,160,115,,,,,,,,
,,6526a0e62c605cc42d9a52e4,65af56226c4c8a399abc700f,2024-01-23_08h04.16.669,bars,2023.2.3,Win32,7.501875469,657b66ea316d21385b68909f,,,,,,,,,,,1267.4332,1268.3578,,,1268.8179,1269.0106,,13,13,,,,,,,,,,,,,,,,bars/030.png,bars/mask000.png,,,,,,,,,,,,0,2,,,,,,,8,6,9,5,,,,,,,,,,,1268.3578,1268.8179,1269.0106,1272.7493,space,3.5546,,1272.7493,53,52,1273.683,1273.6831,1275.7479,space,1.8593,0.0007,0,46,46,46,1,140,65,,,,,,,,
,,6526a0e62c605cc42d9a52e4,65af56226c4c8a399abc700f,2024-01-23_08h04.16.669,bars,2023.2.3,Win32,7.501875469,657b66ea316d21385b68909f,,,,,,,,,,,1275.7482,1276.676,,,1277.0733,1277.2637,,32,32,,,,,,,,,,,,,,,,bars/048.png,bars/mask001.png,,,,,,,,,,,,4,1,,,,,,,10,8,9,8,,,,,,,,,,,1276.676,1277.0733,1277.2638,1278.996,space,1.5445,0.0005,1278.9961,18,37,1279.94,1279.9401,1282.5853,space,2.4492,0.0006,0,47,47,47,1,50,175,,,,,,,,
,,6526a0e62c605cc42d9a52e4,65af56226c4c8a399abc700f,2024-01-23_08h04.16.669,bars,2023.2.3,Win32,7.501875469,657b66ea316d21385b68909f,,,,,,,,,,,1282.5856,1283.5066,,,1283.891,1284.0823,,136,136,,,,,,,,,,,,,,,,bars/025.png,bars/mask000.png,,,,,,,,,,,,0,1,,,,,,,10,6,10,7,,,,,,,,,,,1283.5066,1283.891,1284.0824,1287.6651,space,3.3971,,1287.6652,31,84,1288.6425,1288.6425,1289.8906,space,1.0507,,0,48,48,48,1,105,40,,,,,,,,
,,6526a0e62c605cc42d9a52e4,65af56226c4c8a399abc700f,2024-01-23_08h04.16.669,bars,2023.2.3,Win32,7.501875469,657b66ea316d21385b68909f,,,,,,,,,,,1289.8909,1290.8658,,,1291.2921,1291.4979,,15,15,,,,,,,,,,,,,,,,bars/011.png,bars/mask009.png,,,,,,,,,,,,0,1,,,,,,,8,8,9,9,,,,,,,,,,,1290.8658,1291.292,1291.4979,1293.9211,space,2.2394,0.0006,1293.9211,35,70,1294.8967,1294.8967,1296.6106,space,1.5041,,0,49,49,49,1,160,85,,,,,,,,
,,6526a0e62c605cc42d9a52e4,65af56226c4c8a399abc700f,2024-01-23_08h04.16.669,bars,2023.2.3,Win32,7.501875469,657b66ea316d21385b68909f,,,,,,,,,,,,,,,,,,,,,,,,,,,,,,,,,,,,,,,,,,,,,,,,,,,,,,,,,,,,,,,,,,,,,,,,,,,,,,,,,,,,,,,,,,,,,1296.6428,1356.6399,0,0,0,3,1,sequence_tables/blk038.csv
,,6526a0e62c605cc42d9a52e4,65af56226c4c8a399abc700f,2024-01-23_08h04.16.669,bars,2023.2.3,Win32,7.501875469,657b66ea316d21385b68909f,,,,,,,,,,,1362.2525,1363.2435,,,1363.6645,1363.8828,,30,30,,,,,,,,,,,,,,,,bars/019.png,bars/mask002.png,,,,,,,,,,,,5,1,,,,,,,10,7,10,8,,,,,,1356.6578,1362.2305,space,5.3682,,1363.2435,1363.6645,1363.8829,1368.6179,space,4.5418,0.0005,1368.6179,15,75,1369.5741,1369.5741,1369.5902,,,,0,0,0,0,1,45,105,,,,,,,,
,,6526a0e62c605cc42d9a52e4,65af56226c4c8a399abc700f,2024-01-23_08h04.16.669,bars,2023.2.3,Win32,7.501875469,657b66ea316d21385b68909f,,,,,,,,,,,1369.5906,1370.5807,,,1371.7362,1371.7371,,49,49,,,,,,,,,,,,,,,,bars/039.png,bars/mask008.png,,,,,,,,,,,,0,1,,,,,,,10,5,10,6,,,,,,,,,,,1370.5807,1371.7362,1371.7371,1380.4888,space,8.5515,,1380.4889,54,56,1381.4379,1381.4379,1381.4386,,,,0,1,1,1,1,175,105,,,,,,,,
,,6526a0e62c605cc42d9a52e4,65af56226c4c8a399abc700f,2024-01-23_08h04.16.669,bars,2023.2.3,Win32,7.501875469,657b66ea316d21385b68909f,,,,,,,,,,,1381.4388,1382.3875,,,1382.7791,1382.971,,31,211,,,,,,,,,,,,,,,,bars/009.png,bars/mask009.png,,,,,,,,,,,,4,1,,,,,,,10,3,9,3,,,,,,,,,,,1382.3875,1382.7789,1382.9711,1400.6612,space,17.5077,,1400.6612,16,74,1401.6108,1401.6109,1401.6224,,,,0,2,2,2,1,15,105,,,,,,,,
,,6526a0e62c605cc42d9a52e4,65af56226c4c8a399abc700f,2024-01-23_08h04.16.669,bars,2023.2.3,Win32,7.501875469,657b66ea316d21385b68909f,,,,,,,,,,,1401.6226,1402.5605,,,1402.984,1403.1788,,137,137,,,,,,,,,,,,,,,,bars/034.png,bars/mask009.png,,,,,,,,,,,,4,1,,,,,,,8,1,6,0,,,,,,,,,,,1402.5605,1402.984,1403.179,1410.099,space,6.7343,0.0006,1410.0991,12,72,1411.033,1411.033,1411.046,,,,0,3,3,3,1,125,65,,,,,,,,
,,6526a0e62c605cc42d9a52e4,65af56226c4c8a399abc700f,2024-01-23_08h04.16.669,bars,2023.2.3,Win32,7.501875469,657b66ea316d21385b68909f,,,,,,,,,,,1411.0463,1411.9783,,,1412.4124,1412.7196,,34,214,,,,,,,,,,,,,,,,bars/013.png,bars/mask005.png,,,,,,,,,,,,0,2,,,,,,,10,0,10,1,,,,,,,,,,,1411.9783,1412.4123,1412.7197,1423.9423,space,11.0422,0.0006,1423.9424,41,24,1424.9365,1424.9366,1424.9562,,,,0,4,4,4,1,75,10,,,,,,,,
,,6526a0e62c605cc42d9a52e4,65af56226c4c8a399abc700f,2024-01-23_08h04.16.669,bars,2023.2.3,Win32,7.501875469,657b66ea316d21385b68909f,,,,,,,,,,,1424.9566,1425.9143,,,1426.3374,1426.5358,,53,53,,,,,,,,,,,,,,,,bars/018.png,bars/mask008.png,,,,,,,,,,,,0,2,,,,,,,8,0,9,1,,,,,,,,,,,1425.9144,1426.3372,1426.5359,1440.9557,space,14.2374,,1440.9558,83,37,1441.8981,1441.8981,1441.9103,,,,0,5,5,5,1,150,90,,,,,,,,
,,6526a0e62c605cc42d9a52e4,65af56226c4c8a399abc700f,2024-01-23_08h04.16.669,bars,2023.2.3,Win32,7.501875469,657b66ea316d21385b68909f,,,,,,,,,,,1441.9104,1442.8551,,,1443.2805,1443.4808,,127,127,,,,,,,,,,,,,,,,bars/003.png,bars/mask005.png,,,,,,,,,,,,1,2,,,,,,,6,2,7,2,,,,,,,,,,,1442.8551,1443.2805,1443.4808,1448.6502,space,4.9749,,1448.6503,78,13,1449.5874,1449.5875,1449.5995,,,,0,6,6,6,1,25,140,,,,,,,,
,,6526a0e62c605cc42d9a52e4,65af56226c4c8a399abc700f,2024-01-23_08h04.16.669,bars,2023.2.3,Win32,7.501875469,657b66ea316d21385b68909f,,,,,,,,,,,1449.5997,1450.5323,,,1451.0057,1451.2021,,145,145,,,,,,,,,,,,,,,,bars/021.png,bars/mask003.png,,,,,,,,,,,,6,1,,,,,,,8,0,9,0,,,,,,,,,,,1450.5323,1451.0057,1451.2021,1454.808,space,3.4231,,1454.808,10,75,1455.7677,1455.7678,1455.7816,,,,0,7,7,7,1,155,70,,,,,,,,
,,6526a0e62c605cc42d9a52e4,65af56226c4c8a399abc700f,2024-01-23_08h04.16.669,bars,2023.2.3,Win32,7.501875469,657b66ea316d21385b68909f,,,,,,,,,,,1455.7819,1456.7263,,,1457.1944,1457.3854,,115,115,,,,,,,,,,,,,,,,bars/044.png,bars/mask008.png,,,,,,,,,,,,0,2,,,,,,,6,2,6,2,,,,,,,,,,,1456.7265,1457.1943,1457.3854,1460.0569,space,2.4822,,1460.057,40,40,1460.999,1460.999,1461.0017,,,,0,8,8,8,1,75,155,,,,,,,,
,,6526a0e62c605cc42d9a52e4,65af56226c4c8a399abc700f,2024-01-23_08h04.16.669,bars,2023.2.3,Win32,7.501875469,657b66ea316d21385b68909f,,,,,,,,,,,1461.0018,1461.9393,,,1462.3996,1462.595,,148,148,,,,,,,,,,,,,,,,bars/014.png,bars/mask001.png,,,,,,,,,,,,0,2,,,,,,,8,0,6,0,,,,,,,,,,,1461.9394,1462.3996,1462.595,1466.2266,space,3.4521,0.0005,1466.2266,68,32,1467.1582,1467.1583,1467.1695,,,,0,9,9,9,1,80,0,,,,,,,,
,,6526a0e62c605cc42d9a52e4,65af56226c4c8a399abc700f,2024-01-23_08h04.16.669,bars,2023.2.3,Win32,7.501875469,657b66ea316d21385b68909f,,,,,,,,,,,1467.1697,1468.1005,,,1468.5743,1468.7661,,32,32,,,,,,,,,,,,,,,,bars/001.png,bars/mask006.png,,,,,,,,,,,,0,2,,,,,,,10,2,10,1,,,,,,,,,,,1468.1006,1468.5742,1468.7661,1476.0795,space,7.1343,,1476.0796,82,53,1477.0147,1477.0147,1477.0262,,,,0,10,10,10,1,130,85,,,,,,,,
,,6526a0e62c605cc42d9a52e4,65af56226c4c8a399abc700f,2024-01-23_08h04.16.669,bars,2023.2.3,Win32,7.501875469,657b66ea316d21385b68909f,,,,,,,,,,,1477.0264,1477.9689,,,1478.4313,1478.6287,,49,49,,,,,,,,,,,,,,,,bars/007.png,bars/mask006.png,,,,,,,,,,,,3,2,,,,,,,10,4,10,4,,,,,,,,,,,1477.9689,1478.4313,1478.6288,1484.9676,space,6.1599,0.0005,1484.9676,54,6,1485.9025,1485.9025,1485.9137,,,,0,11,11,11,1,175,55,,,,,,,,
,,6526a0e62c605cc42d9a52e4,65af56226c4c8a399abc700f,2024-01-23_08h04.16.669,bars,2023.2.3,Win32,7.501875469,657b66ea316d21385b68909f,,,,,,,,,,,1485.9139,1486.8478,,,1487.2306,1487.4246,,47,47,,,,,,,,,,,,,,,,bars/044.png,bars/mask006.png,,,,,,,,,,,,1,1,,,,,,,10,2,8,2,,,,,,,,,,,1486.8479,1487.2306,1487.4246,1494.3097,space,6.7039,0.0005,1494.3097,28,72,1495.2654,1495.2655,1495.2779,,,,0,12,12,12,1,75,155,,,,,,,,
,,6526a0e62c605cc42d9a52e4,65af56226c4c8a399abc700f,2024-01-23_08h04.16.669,bars,2023.2.3,Win32,7.501875469,657b66ea316d21385b68909f,,,,,,,,,,,1495.2781,1496.2161,,,1496.6865,1496.8805,,127,127,,,,,,,,,,,,,,,,bars/012.png,bars/mask000.png,,,,,,,,,,,,0,1,,,,,,,8,4,8,4,,,,,,,,,,,1496.2161,1496.6865,1496.8806,1505.7095,space,8.6505,,1505.7095,37,68,1506.6573,1506.6574,1506.6685,,,,0,13,13,13,1,90,15,,,,,,,,
,,6526a0e62c605cc42d9a52e4,65af56226c4c8a399abc700f,2024-01-23_08h04.16.669,bars,2023.2.3,Win32,7.501875469,657b66ea316d21385b68909f,,,,,,,,,,,1506.6687,1507.6061,,,1507.9974,1508.1894,,128,128,,,,,,,,,,,,,,,,bars/044.png,bars/mask002.png,,,,,,,,,,,,1,2,,,,,,,10,6,9,7,,,,,,,,,,,1507.6062,1507.9974,1508.1894,1510.9434,space,2.5689,,1510.9434,53,27,1511.9121,1511.9121,1511.9274,,,,0,14,14,14,1,75,155,,,,,,,,
,,6526a0e62c605cc42d9a52e4,65af56226c4c8a399abc700f,2024-01-23_08h04.16.669,bars,2023.2.3,Win32,7.501875469,657b66ea316d21385b68909f,,,,,,,,,,,1511.9276,1512.8888,,,1513.3078,1513.5016,,114,114,,,,,,,,,,,,,,,,bars/005.png,bars/mask008.png,,,,,,,,,,,,1,2,,,,,,,8,8,9,8,,,,,,,,,,,1512.8889,1513.3078,1513.5016,1514.8414,space,1.1424,,1514.8414,76,26,1515.7787,1515.7787,1515.7794,,,,0,15,15,15,1,10,140,,,,,,,,
,,6526a0e62c605cc42d9a52e4,65af56226c4c8a399abc700f,2024-01-23_08h04.16.669,bars,2023.2.3,Win32,7.501875469,657b66ea316d21385b68909f,,,,,,,,,,,1515.7796,1516.725,,,1517.1319,1517.3252,,131,131,,,,,,,,,,,,,,,,bars/033.png,bars/mask009.png,,,,,,,,,,,,2,2,,,,,,,6,10,8,9,,,,,,,,,,,1516.7251,1517.1319,1517.3253,1521.3676,space,3.8643,,1521.3676,74,24,1522.3117,1522.3117,1522.3127,,,,0,16,16,16,1,25,155,,,,,,,,
,,6526a0e62c605cc42d9a52e4,65af56226c4c8a399abc700f,2024-01-23_08h04.16.669,bars,2023.2.3,Win32,7.501875469,657b66ea316d21385b68909f,,,,,,,,,,,1522.3129,1523.2571,,,1523.6519,1523.9315,,41,41,,,,,,,,,,,,,,,,bars/011.png,bars/mask007.png,,,,,,,,,,,,0,2,,,,,,,4,10,3,10,,,,,,,,,,,1523.2571,1523.6519,1523.9315,1527.3954,space,3.2819,0.0004,1527.3954,61,44,1528.3667,1528.3667,1528.3801,,,,0,17,17,17,1,160,85,,,,,,,,
,,6526a0e62c605cc42d9a52e4,65af56226c4c8a399abc700f,2024-01-23_08h04.16.669,bars,2023.2.3,Win32,7.501875469,657b66ea316d21385b68909f,,,,,,,,,,,1528.3803,1529.3201,,,1529.7958,1529.9906,,122,122,,,,,,,,,,,,,,,,bars/024.png,bars/mask008.png,,,,,,,,,,,,1,1,,,,,,,2,10,1,9,,,,,,,,,,,1529.3201,1529.7957,1529.9907,1535.699,space,5.5277,0.0004,1535.6991,2,48,1536.6818,1536.6818,1536.6957,,,,0,18,18,18,1,120,170,,,,,,,,
,,6526a0e62c605cc42d9a52e4,65af56226c4c8a399abc700f,2024-01-23_08h04.16.669,bars,2023.2.3,Win32,7.501875469,657b66ea316d21385b68909f,,,,,,,,,,,1536.6959,1537.6473,,,1538.1175,1538.3123,,43,223,,,,,,,,,,,,,,,,bars/045.png,bars/mask002.png,,,,,,,,,,,,0,2,,,,,,,0,8,0,8,,,,,,,,,,,1537.6474,1538.1175,1538.3123,1548.9736,space,10.4826,,1548.9737,57,33,1549.9179,1549.9179,1549.9201,,,,0,19,19,19,1,100,10,,,,,,,,
,,6526a0e62c605cc42d9a52e4,65af56226c4c8a399abc700f,2024-01-23_08h04.16.669,bars,2023.2.3,Win32,7.501875469,657b66ea316d21385b68909f,,,,,,,,,,,1549.9204,1550.8437,,,1551.2243,1551.4199,,109,109,,,,,,,,,,,,,,,,bars/003.png,bars/mask001.png,,,,,,,,,,,,0,2,,,,,,,0,10,1,10,,,,,,,,,,,1550.8437,1551.2242,1551.4199,1557.3768,space,5.7711,0.0003,1557.3768,84,31,1558.3082,1558.3082,1558.3204,,,,0,20,20,20,1,25,140,,,,,,,,
,,6526a0e62c605cc42d9a52e4,65af56226c4c8a399abc700f,2024-01-23_08h04.16.669,bars,2023.2.3,Win32,7.501875469,657b66ea316d21385b68909f,,,,,,,,,,,1558.3206,1559.2428,,,1559.626,1559.8233,,35,35,,,,,,,,,,,,,,,,bars/003.png,bars/mask006.png,,,,,,,,,,,,0,1,,,,,,,0,10,0,9,,,,,,,,,,,1559.2429,1559.626,1559.8233,1564.2035,space,4.201,0.0005,1564.2035,10,75,1565.1401,1565.1402,1565.1544,,,,0,21,21,21,1,25,140,,,,,,,,
,,6526a0e62c605cc42d9a52e4,65af56226c4c8a399abc700f,2024-01-23_08h04.16.669,bars,2023.2.3,Win32,7.501875469,657b66ea316d21385b68909f,,,,,,,,,,,1565.1546,1566.0946,,,1566.4858,1566.6842,,53,53,,,,,,,,,,,,,,,,bars/028.png,bars/mask008.png,,,,,,,,,,,,1,1,,,,,,,2,10,2,10,,,,,,,,,,,1566.0947,1566.4858,1566.6843,1583.0653,space,16.2001,,1583.0653,8,67,1584.0785,1584.0786,1584.093,,,,0,22,22,22,1,45,120,,,,,,,,
,,6526a0e62c605cc42d9a52e4,65af56226c4c8a399abc700f,2024-01-23_08h04.16.669,bars,2023.2.3,Win32,7.501875469,657b66ea316d21385b68909f,,,,,,,,,,,1584.0933,1585.0943,,,1585.5304,1585.7532,,149,-31,,,,,,,,,,,,,,,,bars/015.png,bars/mask008.png,,,,,,,,,,,,6,2,,,,,,,4,10,3,9,,,,,,,,,,,1585.0944,1585.5304,1585.7533,1596.2599,space,10.3022,,1596.26,39,11,1597.2479,1597.2479,1597.2654,,,,0,23,23,23,1,110,160,,,,,,,,
,,6526a0e62c605cc42d9a52e4,65af56226c4c8a399abc700f,2024-01-23_08h04.16.669,bars,2023.2.3,Win32,7.501875469,657b66ea316d21385b68909f,,,,,,,,,,,1597.2656,1598.2491,,,1598.6543,1598.8557,,116,116,,,,,,,,,,,,,,,,bars/028.png,bars/mask001.png,,,,,,,,,,,,7,2,,,,,,,2,10,2,8,,,,,,,,,,,1598.2491,1598.6542,1598.8557,1606.0645,space,7.0135,,1606.0645,71,4,1607.0636,1607.0636,1607.078,,,,0,24,24,24,1,45,120,,,,,,,,
,,6526a0e62c605cc42d9a52e4,65af56226c4c8a399abc700f,2024-01-23_08h04.16.669,bars,2023.2.3,Win32,7.501875469,657b66ea316d21385b68909f,,,,,,,,,,,1607.0782,1608.0711,,,1608.506,1608.7369,,110,110,,,,,,,,,,,,,,,,bars/012.png,bars/mask004.png,,,,,,,,,,,,0,1,,,,,,,0,10,0,10,,,,,,,,,,,1608.0712,1608.506,1608.737,1612.6555,space,3.7332,,1612.6555,20,85,1613.6428,1613.6428,1613.6583,,,,0,25,25,25,1,90,15,,,,,,,,
,,6526a0e62c605cc42d9a52e4,65af56226c4c8a399abc700f,2024-01-23_08h04.16.669,bars,2023.2.3,Win32,7.501875469,657b66ea316d21385b68909f,,,,,,,,,,,1613.6585,1614.601,,,1614.9999,1615.2013,,121,121,,,,,,,,,,,,,,,,bars/034.png,bars/mask005.png,,,,,,,,,,,,0,1,,,,,,,0,10,0,10,,,,,,,,,,,1614.601,1614.9998,1615.2014,1619.2506,space,3.863,,1619.2506,4,56,1620.2102,1620.2102,1620.2239,,,,0,26,26,26,1,125,65,,,,,,,,
,,6526a0e62c605cc42d9a52e4,65af56226c4c8a399abc700f,2024-01-23_08h04.16.669,bars,2023.2.3,Win32,7.501875469,657b66ea316d21385b68909f,,,,,,,,,,,1620.2242,1621.182,,,1621.6868,1621.8847,,31,31,,,,,,,,,,,,,,,,bars/020.png,bars/mask002.png,,,,,,,,,,,,0,2,,,,,,,0,8,0,6,,,,,,,,,,,1621.182,1621.6868,1621.8847,1629.6766,space,7.6113,,1629.6767,84,41,1630.6267,1630.6267,1630.642,,,,0,27,27,27,1,115,170,,,,,,,,
,,6526a0e62c605cc42d9a52e4,65af56226c4c8a399abc700f,2024-01-23_08h04.16.669,bars,2023.2.3,Win32,7.501875469,657b66ea316d21385b68909f,,,,,,,,,,,1630.6423,1631.6124,,,1631.9994,1632.1904,,149,149,,,,,,,,,,,,,,,,bars/011.png,bars/mask008.png,,,,,,,,,,,,1,1,,,,,,,2,6,2,5,,,,,,,,,,,1631.6124,1631.9994,1632.1904,1638.078,space,5.7069,0.0006,1638.0781,11,64,1639.0232,1639.0233,1639.038,,,,0,28,28,28,1,160,85,,,,,,,,
,,6526a0e62c605cc42d9a52e4,65af56226c4c8a399abc700f,2024-01-23_08h04.16.669,bars,2023.2.3,Win32,7.501875469,657b66ea316d21385b68909f,,,,,,,,,,,1639.0383,1639.9821,,,1640.4165,1640.6095,,110,110,,,,,,,,,,,,,,,,bars/040.png,bars/mask000.png,,,,,,,,,,,,0,1,,,,,,,0,8,0,8,,,,,,,,,,,1639.9821,1640.4165,1640.6096,1647.8737,space,7.0842,,1647.8737,30,75,1648.8434,1648.8435,1648.8443,,,,0,29,29,29,1,140,5,,,,,,,,
,,6526a0e62c605cc42d9a52e4,65af56226c4c8a399abc700f,2024-01-23_08h04.16.669,bars,2023.2.3,Win32,7.501875469,657b66ea316d21385b68909f,,,,,,,,,,,1648.8447,1649.8613,,,1650.3016,1650.52,,125,125,,,,,,,,,,,,,,,,bars/025.png,bars/mask004.png,,,,,,,,,,,,0,1,,,,,,,0,6,0,7,,,,,,,,,,,1649.8613,1650.3015,1650.5201,1654.3182,space,3.6128,0.0008,1654.3183,20,85,1655.3383,1655.3383,1655.3547,,,,0,30,30,30,1,105,40,,,,,,,,
,,6526a0e62c605cc42d9a52e4,65af56226c4c8a399abc700f,2024-01-23_08h04.16.669,bars,2023.2.3,Win32,7.501875469,657b66ea316d21385b68909f,,,,,,,,,,,1655.355,1656.3401,,,1656.7324,1656.9325,,52,52,,,,,,,,,,,,,,,,bars/029.png,bars/mask009.png,,,,,,,,,,,,8,2,,,,,,,0,8,1,10,,,,,,,,,,,1656.3401,1656.7324,1656.9326,1663.5413,space,6.4139,0.0005,1663.5414,38,7,1664.5229,1664.523,1664.5258,,,,0,31,31,31,1,90,45,,,,,,,,
,,6526a0e62c605cc42d9a52e4,65af56226c4c8a399abc700f,2024-01-23_08h04.16.669,bars,2023.2.3,Win32,7.501875469,657b66ea316d21385b68909f,,,,,,,,,,,1664.5262,1665.5102,,,1665.9132,1666.122,,71,71,,,,,,,,,,,,,,,,bars/010.png,bars/mask000.png,,,,,,,,,,,,5,2,,,,,,,0,10,0,10,,,,,,,,,,,1665.5102,1665.9132,1666.1221,1673.8803,space,7.571,0.0006,1673.8803,86,16,1674.8635,1674.8636,1674.8795,,,,0,32,32,32,1,165,55,,,,,,,,
,,6526a0e62c605cc42d9a52e4,65af56226c4c8a399abc700f,2024-01-23_08h04.16.669,bars,2023.2.3,Win32,7.501875469,657b66ea316d21385b68909f,,,,,,,,,,,1674.8798,1675.8545,,,1676.2484,1676.446,,107,107,,,,,,,,,,,,,,,,bars/010.png,bars/mask006.png,,,,,,,,,,,,0,2,,,,,,,0,10,0,9,,,,,,,,,,,1675.8545,1676.2484,1676.446,1680.9975,space,4.3671,,1680.9976,58,52,1682.0429,1682.0431,1682.0593,,,,0,33,33,33,1,165,55,,,,,,,,
,,6526a0e62c605cc42d9a52e4,65af56226c4c8a399abc700f,2024-01-23_08h04.16.669,bars,2023.2.3,Win32,7.501875469,657b66ea316d21385b68909f,,,,,,,,,,,1682.0595,1683.0423,,,1683.4578,1683.6638,,136,136,,,,,,,,,,,,,,,,bars/046.png,bars/mask001.png,,,,,,,,,,,,0,1,,,,,,,2,8,1,7,,,,,,,,,,,1683.0423,1683.4578,1683.6638,1691.4317,space,7.5791,0.0004,1691.4317,19,51,1692.3787,1692.3788,1692.3925,,,,0,34,34,34,1,155,85,,,,,,,,
,,6526a0e62c605cc42d9a52e4,65af56226c4c8a399abc700f,2024-01-23_08h04.16.669,bars,2023.2.3,Win32,7.501875469,657b66ea316d21385b68909f,,,,,,,,,,,1692.3928,1693.3249,,,1693.7145,1693.9134,,122,122,,,,,,,,,,,,,,,,bars/027.png,bars/mask002.png,,,,,,,,,,,,0,1,,,,,,,0,6,0,7,,,,,,,,,,,1693.325,1693.7145,1693.9134,1699.9682,space,5.8766,,1699.9682,12,72,1700.9051,1700.9051,1700.9183,,,,0,35,35,35,1,110,50,,,,,,,,
,,6526a0e62c605cc42d9a52e4,65af56226c4c8a399abc700f,2024-01-23_08h04.16.669,bars,2023.2.3,Win32,7.501875469,657b66ea316d21385b68909f,,,,,,,,,,,1700.9185,1701.8452,,,1702.227,1702.4184,,145,145,,,,,,,,,,,,,,,,bars/011.png,bars/mask006.png,,,,,,,,,,,,1,1,,,,,,,0,8,2,8,,,,,,,,,,,1701.8452,1702.227,1702.4185,1719.4066,space,16.8109,0.0003,1719.4066,15,60,1720.3575,1720.3575,1720.3714,,,,0,36,36,36,1,160,85,,,,,,,,
,,6526a0e62c605cc42d9a52e4,65af56226c4c8a399abc700f,2024-01-23_08h04.16.669,bars,2023.2.3,Win32,7.501875469,657b66ea316d21385b68909f,,,,,,,,,,,1720.3717,1721.3189,,,1721.7053,1721.9053,,50,50,,,,,,,,,,,,,,,,bars/028.png,bars/mask007.png,,,,,,,,,,,,0,1,,,,,,,0,6,0,7,,,,,,,,,,,1721.3189,1721.7052,1721.9053,1730.2398,space,8.1563,,1730.2398,5,70,1731.1693,1731.1693,1731.1808,,,,0,37,37,37,1,45,120,,,,,,,,
,,6526a0e62c605cc42d9a52e4,65af56226c4c8a399abc700f,2024-01-23_08h04.16.669,bars,2023.2.3,Win32,7.501875469,657b66ea316d21385b68909f,,,,,,,,,,,1731.1811,1732.117,,,1732.5265,1732.7176,,128,128,,,,,,,,,,,,,,,,bars/049.png,bars/mask005.png,,,,,,,,,,,,5,2,,,,,,,0,8,1,9,,,,,,,,,,,1732.1171,1732.5265,1732.7176,1737.6301,space,4.7302,0.0005,1737.6301,32,13,1738.5688,1738.5688,1738.5711,,,,0,38,38,38,1,160,115,,,,,,,,
,,6526a0e62c605cc42d9a52e4,65af56226c4c8a399abc700f,2024-01-23_08h04.16.669,bars,2023.2.3,Win32,7.501875469,657b66ea316d21385b68909f,,,,,,,,,,,1738.5713,1739.5052,,,1739.8942,1740.0841,,81,81,,,,,,,,,,,,,,,,bars/004.png,bars/mask001.png,,,,,,,,,,,,0,2,,,,,,,2,6,2,7,,,,,,,,,,,1739.5052,1739.8942,1740.0842,1751.5862,space,11.3226,,1751.5862,56,44,1752.5554,1752.5555,1752.5667,,,,0,39,39,39,1,25,125,,,,,,,,
,,6526a0e62c605cc42d9a52e4,65af56226c4c8a399abc700f,2024-01-23_08h04.16.669,bars,2023.2.3,Win32,7.501875469,657b66ea316d21385b68909f,,,,,,,,,,,1752.5671,1753.5357,,,1753.9279,1754.1284,,53,53,,,,,,,,,,,,,,,,bars/041.png,bars/mask007.png,,,,,,,,,,,,0,2,,,,,,,4,4,5,3,,,,,,,,,,,1753.5357,1753.9279,1754.1284,1756.2507,space,1.9469,,1756.2507,33,32,1757.1786,1757.1786,1757.1917,,,,0,40,40,40,1,20,85,,,,,,,,
,,6526a0e62c605cc42d9a52e4,65af56226c4c8a399abc700f,2024-01-23_08h04.16.669,bars,2023.2.3,Win32,7.501875469,657b66ea316d21385b68909f,,,,,,,,,,,1757.1919,1758.1351,,,1758.5185,1758.7118,,21,201,,,,,,,,,,,,,,,,bars/045.png,bars/mask002.png,,,,,,,,,,,,4,2,,,,,,,2,6,1,7,,,,,,,,,,,1758.1351,1758.5185,1758.7119,1766.9091,space,8.008,,1766.9092,79,11,1767.8415,1767.8415,1767.8561,,,,0,41,41,41,1,100,10,,,,,,,,
,,6526a0e62c605cc42d9a52e4,65af56226c4c8a399abc700f,2024-01-23_08h04.16.669,bars,2023.2.3,Win32,7.501875469,657b66ea316d21385b68909f,,,,,,,,,,,1767.8564,1768.7778,,,1769.1663,1769.3708,,143,143,,,,,,,,,,,,,,,,bars/017.png,bars/mask005.png,,,,,,,,,,,,3,1,,,,,,,4,4,3,3,,,,,,,,,,,1768.7778,1769.1662,1769.3708,1777.755,space,8.2056,0.0005,1777.755,2,82,1778.6888,1778.6888,1778.7012,,,,0,42,42,42,1,145,45,,,,,,,,
,,6526a0e62c605cc42d9a52e4,65af56226c4c8a399abc700f,2024-01-23_08h04.16.669,bars,2023.2.3,Win32,7.501875469,657b66ea316d21385b68909f,,,,,,,,,,,1778.7015,1779.6523,,,1780.0433,1780.2339,,137,137,,,,,,,,,,,,,,,,bars/019.png,bars/mask009.png,,,,,,,,,,,,0,2,,,,,,,2,6,4,6,,,,,,,,,,,1779.6523,1780.0433,1780.2339,1788.8133,space,8.4,0.0011,1788.8133,88,32,1789.7766,1789.7766,1789.7929,,,,0,43,43,43,1,45,105,,,,,,,,
,,6526a0e62c605cc42d9a52e4,65af56226c4c8a399abc700f,2024-01-23_08h04.16.669,bars,2023.2.3,Win32,7.501875469,657b66ea316d21385b68909f,,,,,,,,,,,1789.7931,1790.7219,,,1791.1086,1791.3003,,124,124,,,,,,,,,,,,,,,,bars/024.png,bars/mask002.png,,,,,,,,,,,,0,1,,,,,,,0,8,0,8,,,,,,,,,,,1790.7219,1791.1086,1791.3003,1797.5729,space,6.0922,0.0006,1797.5729,4,46,1798.5245,1798.5246,1798.54,,,,0,44,44,44,1,120,170,,,,,,,,
,,6526a0e62c605cc42d9a52e4,65af56226c4c8a399abc700f,2024-01-23_08h04.16.669,bars,2023.2.3,Win32,7.501875469,657b66ea316d21385b68909f,,,,,,,,,,,1798.5403,1799.4619,,,1799.8447,1800.0508,,121,121,,,,,,,,,,,,,,,,bars/049.png,bars/mask008.png,,,,,,,,,,,,6,2,,,,,,,2,6,1,7,,,,,,,,,,,1799.462,1799.8446,1800.0508,1801.7328,space,1.5049,,1801.7328,39,6,1802.6737,1802.6738,1802.6862,,,,0,45,45,45,1,160,115,,,,,,,,
,,6526a0e62c605cc42d9a52e4,65af56226c4c8a399abc700f,2024-01-23_08h04.16.669,bars,2023.2.3,Win32,7.501875469,657b66ea316d21385b68909f,,,,,,,,,,,1802.6864,1803.6261,,,1804.0142,1804.2182,,21,21,,,,,,,,,,,,,,,,bars/009.png,bars/mask003.png,,,,,,,,,,,,0,1,,,,,,,0,4,0,4,,,,,,,,,,,1803.6262,1804.0141,1804.2183,1807.8,space,3.4032,,1807.8,6,84,1808.7297,1808.7298,1808.7428,,,,0,46,46,46,1,15,105,,,,,,,,
,,6526a0e62c605cc42d9a52e4,65af56226c4c8a399abc700f,2024-01-23_08h04.16.669,bars,2023.2.3,Win32,7.501875469,657b66ea316d21385b68909f,,,,,,,,,,,1808.743,1809.6666,,,1810.0501,1810.2428,,177,177,,,,,,,,,,,,,,,,bars/006.png,bars/mask000.png,,,,,,,,,,,,0,1,,,,,,,2,6,2,6,,,,,,,,,,,1809.6666,1810.05,1810.2428,1815.0614,space,4.6402,0.0005,1815.0615,38,77,1816.0808,1816.0809,1816.0958,,,,0,47,47,47,1,35,100,,,,,,,,
,,6526a0e62c605cc42d9a52e4,65af56226c4c8a399abc700f,2024-01-23_08h04.16.669,bars,2023.2.3,Win32,7.501875469,657b66ea316d21385b68909f,,,,,,,,,,,1816.0961,1817.073,,,1817.4737,1817.6703,,13,13,,,,,,,,,,,,,,,,bars/000.png,bars/mask004.png,,,,,,,,,,,,0,1,,,,,,,0,4,0,3,,,,,,,,,,,1817.073,1817.4737,1817.6703,1821.7581,space,3.904,,1821.7581,27,48,1822.7564,1822.7565,1822.7577,,,,0,48,48,48,1,40,145,,,,,,,,
,,6526a0e62c605cc42d9a52e4,65af56226c4c8a399abc700f,2024-01-23_08h04.16.669,bars,2023.2.3,Win32,7.501875469,657b66ea316d21385b68909f,,,,,,,,,,,1822.7579,1823.7318,,,1824.1358,1824.3307,,124,124,,,,,,,,,,,,,,,,bars/025.png,bars/mask003.png,,,,,,,,,,,,1,1,,,,,,,2,2,2,3,,,,,,,,,,,1823.7319,1824.1356,1824.3307,1831.9131,space,7.3802,0.0007,1831.9132,19,84,1832.8871,1832.8872,1832.9032,,,,0,49,49,49,1,105,40,,,,,,,,
,,6526a0e62c605cc42d9a52e4,65af56226c4c8a399abc700f,2024-01-23_08h04.16.669,bars,2023.2.3,Win32,7.501875469,657b66ea316d21385b68909f,,,,,,,,,,,,,,,,,,,,,,,,,,,,,,,,,,,,,,,,,,,,,,,,,,,,,,,,,,,,,,,,,,,,,,,,,,,,,,,,,,,,,,,,,,,,,1832.9034,1892.9301,0,1,1,0,1,sequence_tables/blk043.csv
,,6526a0e62c605cc42d9a52e4,65af56226c4c8a399abc700f,2024-01-23_08h04.16.669,bars,2023.2.3,Win32,7.501875469,657b66ea316d21385b68909f,,,,,,,,,,,1901.9979,1902.9882,,,1903.3964,1903.5956,,48,48,,,,,,,,,,,,,,,,bars/007.png,bars/mask006.png,,,,,,,,,,,,2,2,,,,,,,0,3,0,3,,,,,,1892.947,1901.9106,space,8.7768,0.0003,1902.9882,1903.3964,1903.5957,1908.8515,space,5.0624,0.0012,1908.8515,53,7,1909.8508,1909.8508,1909.8683,,,,0,0,0,0,1,175,55,,,,,,,,
,,6526a0e62c605cc42d9a52e4,65af56226c4c8a399abc700f,2024-01-23_08h04.16.669,bars,2023.2.3,Win32,7.501875469,657b66ea316d21385b68909f,,,,,,,,,,,1909.8688,1910.8561,,,1911.2586,1911.4782,,28,208,,,,,,,,,,,,,,,,bars/028.png,bars/mask004.png,,,,,,,,,,,,0,1,,,,,,,2,5,0,6,,,,,,,,,,,1910.8561,1911.2586,1911.4783,1931.6279,space,19.9559,,1931.628,17,88,1932.6262,1932.6263,1932.6441,,,,0,1,1,1,1,45,120,,,,,,,,
,,6526a0e62c605cc42d9a52e4,65af56226c4c8a399abc700f,2024-01-23_08h04.16.669,bars,2023.2.3,Win32,7.501875469,657b66ea316d21385b68909f,,,,,,,,,,,1932.6443,1933.5951,,,1933.9902,1934.1827,,60,60,,,,,,,,,,,,,,,,bars/024.png,bars/mask003.png,,,,,,,,,,,,0,1,,,,,,,0,7,0,6,,,,,,,,,,,1933.5951,1933.9901,1934.1827,1946.2244,space,11.8605,0.0006,1946.2244,60,70,1947.1664,1947.1664,1947.1672,,,,0,2,2,2,1,120,170,,,,,,,,
,,6526a0e62c605cc42d9a52e4,65af56226c4c8a399abc700f,2024-01-23_08h04.16.669,bars,2023.2.3,Win32,7.501875469,657b66ea316d21385b68909f,,,,,,,,,,,1947.1675,1948.0982,,,1948.4821,1948.6732,,60,60,,,,,,,,,,,,,,,,bars/026.png,bars/mask005.png,,,,,,,,,,,,1,2,,,,,,,2,5,2,5,,,,,,,,,,,1948.0983,1948.4821,1948.6732,1960.7388,space,11.8845,,1960.7388,25,25,1961.6791,1961.6792,1961.6939,,,,0,3,3,3,1,35,85,,,,,,,,
,,6526a0e62c605cc42d9a52e4,65af56226c4c8a399abc700f,2024-01-23_08h04.16.669,bars,2023.2.3,Win32,7.501875469,657b66ea316d21385b68909f,,,,,,,,,,,1961.6941,1962.6293,,,1963.0191,1963.2162,,115,115,,,,,,,,,,,,,,,,bars/005.png,bars/mask006.png,,,,,,,,,,,,1,2,,,,,,,0,7,0,7,,,,,,,,,,,1962.6293,1963.0191,1963.2162,1969.1157,space,5.7075,0.0003,1969.1158,75,25,1970.0778,1970.0778,1970.0891,,,,0,4,4,4,1,10,140,,,,,,,,
,,6526a0e62c605cc42d9a52e4,65af56226c4c8a399abc700f,2024-01-23_08h04.16.669,bars,2023.2.3,Win32,7.501875469,657b66ea316d21385b68909f,,,,,,,,,,,1970.0894,1971.087,,,1971.5051,1971.699,,151,151,,,,,,,,,,,,,,,,bars/029.png,bars/mask007.png,,,,,,,,,,,,0,1,,,,,,,2,5,3,5,,,,,,,,,,,1971.0871,1971.505,1971.6991,1978.5144,space,6.6247,,1978.5144,61,74,1979.5114,1979.5114,1979.5297,,,,0,5,5,5,1,90,45,,,,,,,,
,,6526a0e62c605cc42d9a52e4,65af56226c4c8a399abc700f,2024-01-23_08h04.16.669,bars,2023.2.3,Win32,7.501875469,657b66ea316d21385b68909f,,,,,,,,,,,1979.53,1980.5083,,,1980.9141,1981.1171,,143,143,,,,,,,,,,,,,,,,bars/033.png,bars/mask003.png,,,,,,,,,,,,1,2,,,,,,,0,3,0,2,,,,,,,,,,,1980.5084,1980.9141,1981.1172,1986.0646,space,4.7643,0.0006,1986.0647,62,12,1987.0417,1987.0418,1987.0542,,,,0,6,6,6,1,25,155,,,,,,,,
,,6526a0e62c605cc42d9a52e4,65af56226c4c8a399abc700f,2024-01-23_08h04.16.669,bars,2023.2.3,Win32,7.501875469,657b66ea316d21385b68909f,,,,,,,,,,,1987.0546,1987.9952,,,1988.3782,1988.5714,,43,43,,,,,,,,,,,,,,,,bars/028.png,bars/mask006.png,,,,,,,,,,,,3,1,,,,,,,2,5,3,5,,,,,,,,,,,1987.9953,1988.3782,1988.5714,1993.7647,space,5.012,0.0006,1993.7647,2,77,1994.7006,1994.7006,1994.7136,,,,0,7,7,7,1,45,120,,,,,,,,
,,6526a0e62c605cc42d9a52e4,65af56226c4c8a399abc700f,2024-01-23_08h04.16.669,bars,2023.2.3,Win32,7.501875469,657b66ea316d21385b68909f,,,,,,,,,,,1994.7139,1995.6516,,,1996.0404,1996.2345,,110,110,,,,,,,,,,,,,,,,bars/021.png,bars/mask005.png,,,,,,,,,,,,0,2,,,,,,,0,7,0,8,,,,,,,,,,,1995.6517,1996.0403,1996.2345,2001.7872,space,5.3666,,2001.7872,45,40,2002.7431,2002.7431,2002.7562,,,,0,8,8,8,1,155,70,,,,,,,,
,,6526a0e62c605cc42d9a52e4,65af56226c4c8a399abc700f,2024-01-23_08h04.16.669,bars,2023.2.3,Win32,7.501875469,657b66ea316d21385b68909f,,,,,,,,,,,2002.7564,2003.7045,,,2004.101,2004.3068,,153,-27,,,,,,,,,,,,,,,,bars/033.png,bars/mask003.png,,,,,,,,,,,,5,2,,,,,,,2,5,3,5,,,,,,,,,,,2003.7046,2004.1009,2004.3069,2019.1112,space,14.62,,2019.1112,52,2,2020.0672,2020.0672,2020.0823,,,,0,9,9,9,1,25,155,,,,,,,,
,,6526a0e62c605cc42d9a52e4,65af56226c4c8a399abc700f,2024-01-23_08h04.16.669,bars,2023.2.3,Win32,7.501875469,657b66ea316d21385b68909f,,,,,,,,,,,2020.0825,2021.0425,,,2021.4355,2021.656,,155,-25,,,,,,,,,,,,,,,,bars/034.png,bars/mask002.png,,,,,,,,,,,,0,1,,,,,,,0,7,1,7,,,,,,,,,,,2021.0425,2021.4353,2021.6561,2029.319,space,7.4781,0.0005,2029.3191,30,90,2030.2803,2030.2804,2030.2969,,,,0,10,10,10,1,125,65,,,,,,,,
,,6526a0e62c605cc42d9a52e4,65af56226c4c8a399abc700f,2024-01-23_08h04.16.669,bars,2023.2.3,Win32,7.501875469,657b66ea316d21385b68909f,,,,,,,,,,,2030.2972,2031.2666,,,2031.6542,2031.8456,,116,116,,,,,,,,,,,,,,,,bars/013.png,bars/mask001.png,,,,,,,,,,,,0,1,,,,,,,0,9,1,10,,,,,,,,,,,2031.2667,2031.6541,2031.8457,2041.8216,space,9.7938,0.0005,2041.8216,41,74,2042.7537,2042.7538,2042.7659,,,,0,11,11,11,1,75,10,,,,,,,,
,,6526a0e62c605cc42d9a52e4,65af56226c4c8a399abc700f,2024-01-23_08h04.16.669,bars,2023.2.3,Win32,7.501875469,657b66ea316d21385b68909f,,,,,,,,,,,2042.7661,2043.6958,,,2044.0836,2044.2744,,122,122,,,,,,,,,,,,,,,,bars/029.png,bars/mask007.png,,,,,,,,,,,,0,1,,,,,,,2,7,2,7,,,,,,,,,,,2043.6958,2044.0836,2044.2744,2054.0888,space,9.6343,,2054.0889,32,77,2055.0211,2055.0212,2055.0219,,,,0,12,12,12,1,90,45,,,,,,,,
,,6526a0e62c605cc42d9a52e4,65af56226c4c8a399abc700f,2024-01-23_08h04.16.669,bars,2023.2.3,Win32,7.501875469,657b66ea316d21385b68909f,,,,,,,,,,,2055.0221,2055.9649,,,2056.3459,2056.5377,,136,136,,,,,,,,,,,,,,,,bars/022.png,bars/mask002.png,,,,,,,,,,,,0,1,,,,,,,4,5,3,5,,,,,,,,,,,2055.9649,2056.3459,2056.5378,2067.8238,space,11.1067,0.0007,2067.8238,41,64,2068.7593,2068.7594,2068.7729,,,,0,13,13,13,1,95,20,,,,,,,,
,,6526a0e62c605cc42d9a52e4,65af56226c4c8a399abc700f,2024-01-23_08h04.16.669,bars,2023.2.3,Win32,7.501875469,657b66ea316d21385b68909f,,,,,,,,,,,2068.7732,2069.7019,,,2070.0914,2070.2815,,149,149,,,,,,,,,,,,,,,,bars/046.png,bars/mask003.png,,,,,,,,,,,,1,1,,,,,,,2,3,1,3,,,,,,,,,,,2069.702,2070.0913,2070.2815,2074.1225,space,3.6601,,2074.1226,6,64,2075.0731,2075.0731,2075.1373,,,,0,14,14,14,1,155,85,,,,,,,,
,,6526a0e62c605cc42d9a52e4,65af56226c4c8a399abc700f,2024-01-23_08h04.16.669,bars,2023.2.3,Win32,7.501875469,657b66ea316d21385b68909f,,,,,,,,,,,2075.1379,2076.1009,,,2076.4852,2076.6756,,149,149,,,,,,,,,,,,,,,,bars/035.png,bars/mask007.png,,,,,,,,,,,,0,1,,,,,,,4,1,3,3,,,,,,,,,,,2076.1009,2076.4852,2076.6756,2079.3155,space,2.4594,,2079.3156,26,89,2080.26,2080.26,2080.2726,,,,0,15,15,15,1,175,60,,,,,,,,
,,6526a0e62c605cc42d9a52e4,65af56226c4c8a399abc700f,2024-01-23_08h04.16.669,bars,2023.2.3,Win32,7.501875469,657b66ea316d21385b68909f,,,,,,,,,,,2080.2834,2081.2432,,,2081.6602,2081.8544,,28,28,,,,,,,,,,,,,,,,bars/044.png,bars/mask001.png,,,,,,,,,,,,0,1,,,,,,,6,0,5,0,,,,,,,,,,,2081.2433,2081.6601,2081.8544,2087.6258,space,5.5908,,2087.6258,47,53,2088.5609,2088.5609,2088.5736,,,,0,16,16,16,1,75,155,,,,,,,,
,,6526a0e62c605cc42d9a52e4,65af56226c4c8a399abc700f,2024-01-23_08h04.16.669,bars,2023.2.3,Win32,7.501875469,657b66ea316d21385b68909f,,,,,,,,,,,2088.5738,2089.508,,,2089.8951,2090.0943,,162,162,,,,,,,,,,,,,,,,bars/029.png,bars/mask006.png,,,,,,,,,,,,0,2,,,,,,,4,2,5,2,,,,,,,,,,,2089.5081,2089.895,2090.0943,2092.4093,space,2.1295,0.001,2092.4094,72,63,2093.3623,2093.3623,2093.3749,,,,0,17,17,17,1,90,45,,,,,,,,
,,6526a0e62c605cc42d9a52e4,65af56226c4c8a399abc700f,2024-01-23_08h04.16.669,bars,2023.2.3,Win32,7.501875469,657b66ea316d21385b68909f,,,,,,,,,,,2093.4132,2094.3797,,,2094.7767,2094.9742,,137,137,,,,,,,,,,,,,,,,bars/012.png,bars/mask009.png,,,,,,,,,,,,0,1,,,,,,,6,4,7,4,,,,,,,,,,,2094.3797,2094.7767,2094.9742,2109.427,space,14.2723,0.001,2109.427,47,58,2110.4378,2110.4378,2110.4539,,,,0,18,18,18,1,90,15,,,,,,,,
,,6526a0e62c605cc42d9a52e4,65af56226c4c8a399abc700f,2024-01-23_08h04.16.669,bars,2023.2.3,Win32,7.501875469,657b66ea316d21385b68909f,,,,,,,,,,,2110.4543,2111.3848,,,2111.7926,2111.9963,,114,114,,,,,,,,,,,,,,,,bars/001.png,bars/mask008.png,,,,,,,,,,,,3,1,,,,,,,4,2,6,3,,,,,,,,,,,2111.3848,2111.7926,2111.9963,2114.4616,space,2.2849,0.0003,2114.4616,16,29,2115.4595,2115.4596,2115.4744,,,,0,19,19,19,1,130,85,,,,,,,,
,,6526a0e62c605cc42d9a52e4,65af56226c4c8a399abc700f,2024-01-23_08h04.16.669,bars,2023.2.3,Win32,7.501875469,657b66ea316d21385b68909f,,,,,,,,,,,2115.4747,2116.5138,,,2116.9661,2117.1834,,38,38,,,,,,,,,,,,,,,,bars/048.png,bars/mask004.png,,,,,,,,,,,,5,1,,,,,,,6,4,8,4,,,,,,,,,,,2116.5139,2116.9661,2117.1834,2121.1445,space,3.7775,,2121.1446,12,43,2122.1494,2122.1495,2122.1655,,,,0,20,20,20,1,50,175,,,,,,,,
,,6526a0e62c605cc42d9a52e4,65af56226c4c8a399abc700f,2024-01-23_08h04.16.669,bars,2023.2.3,Win32,7.501875469,657b66ea316d21385b68909f,,,,,,,,,,,2122.1658,2123.1245,,,2123.5252,2123.738,,153,153,,,,,,,,,,,,,,,,bars/021.png,bars/mask009.png,,,,,,,,,,,,8,1,,,,,,,8,6,9,6,,,,,,,,,,,2123.1246,2123.5251,2123.7382,2127.3115,space,3.3575,,2127.3116,2,83,2128.3037,2128.3038,2128.3206,,,,0,21,21,21,1,155,70,,,,,,,,
,,6526a0e62c605cc42d9a52e4,65af56226c4c8a399abc700f,2024-01-23_08h04.16.669,bars,2023.2.3,Win32,7.501875469,657b66ea316d21385b68909f,,,,,,,,,,,2128.3212,2129.2907,,,2129.7132,2129.931,,164,164,,,,,,,,,,,,,,,,bars/040.png,bars/mask006.png,,,,,,,,,,,,2,2,,,,,,,10,8,9,8,,,,,,,,,,,2129.2907,2129.7132,2129.9311,2134.309,space,4.1879,0.0006,2134.309,24,21,2135.2935,2135.2935,2135.2957,,,,0,22,22,22,1,140,5,,,,,,,,
,,6526a0e62c605cc42d9a52e4,65af56226c4c8a399abc700f,2024-01-23_08h04.16.669,bars,2023.2.3,Win32,7.501875469,657b66ea316d21385b68909f,,,,,,,,,,,2135.296,2136.2684,,,2136.661,2136.8687,,167,167,,,,,,,,,,,,,,,,bars/004.png,bars/mask003.png,,,,,,,,,,,,0,1,,,,,,,8,10,7,10,,,,,,,,,,,2136.2684,2136.661,2136.8688,2140.0735,space,3.024,,2140.0735,38,42,2141.0307,2141.0307,2141.048,,,,0,23,23,23,1,25,125,,,,,,,,
,,6526a0e62c605cc42d9a52e4,65af56226c4c8a399abc700f,2024-01-23_08h04.16.669,bars,2023.2.3,Win32,7.501875469,657b66ea316d21385b68909f,,,,,,,,,,,2141.0483,2141.993,,,2142.3894,2142.586,,152,152,,,,,,,,,,,,,,,,bars/004.png,bars/mask007.png,,,,,,,,,,,,1,2,,,,,,,10,8,10,8,,,,,,,,,,,2141.9931,2142.3893,2142.5862,2147.245,space,4.4743,,2147.2451,53,27,2148.2714,2148.2715,2148.2879,,,,0,24,24,24,1,25,125,,,,,,,,
,,6526a0e62c605cc42d9a52e4,65af56226c4c8a399abc700f,2024-01-23_08h04.16.669,bars,2023.2.3,Win32,7.501875469,657b66ea316d21385b68909f,,,,,,,,,,,2148.2883,2149.2586,,,2149.6534,2149.8495,,158,158,,,,,,,,,,,,,,,,bars/029.png,bars/mask001.png,,,,,,,,,,,,0,2,,,,,,,8,6,10,6,,,,,,,,,,,2149.2587,2149.6533,2149.8495,2152.8409,space,2.8067,,2152.8409,68,67,2153.8367,2153.8368,2153.8523,,,,0,25,25,25,1,90,45,,,,,,,,
,,6526a0e62c605cc42d9a52e4,65af56226c4c8a399abc700f,2024-01-23_08h04.16.669,bars,2023.2.3,Win32,7.501875469,657b66ea316d21385b68909f,,,,,,,,,,,2153.8526,2154.8226,,,2155.2362,2155.4345,,159,-21,,,,,,,,,,,,,,,,bars/038.png,bars/mask005.png,,,,,,,,,,,,5,1,,,,,,,6,4,6,4,,,,,,,,,,,2154.8226,2155.2362,2155.4345,2162.1553,space,6.5052,0.0006,2162.1553,6,89,2163.0952,2163.0953,2163.1079,,,,0,26,26,26,1,165,70,,,,,,,,
,,6526a0e62c605cc42d9a52e4,65af56226c4c8a399abc700f,2024-01-23_08h04.16.669,bars,2023.2.3,Win32,7.501875469,657b66ea316d21385b68909f,,,,,,,,,,,2163.1082,2164.0498,,,2164.4397,2164.6314,,109,109,,,,,,,,,,,,,,,,bars/023.png,bars/mask001.png,,,,,,,,,,,,6,2,,,,,,,8,6,8,7,,,,,,,,,,,2164.05,2164.4396,2164.6314,2167.1184,space,2.3075,,2167.1184,89,6,2168.063,2168.0631,2168.0647,,,,0,27,27,27,1,20,115,,,,,,,,
,,6526a0e62c605cc42d9a52e4,65af56226c4c8a399abc700f,2024-01-23_08h04.16.669,bars,2023.2.3,Win32,7.501875469,657b66ea316d21385b68909f,,,,,,,,,,,2168.065,2169.0021,,,2169.3951,2169.5869,,119,119,,,,,,,,,,,,,,,,bars/036.png,bars/mask002.png,,,,,,,,,,,,1,1,,,,,,,6,8,8,10,,,,,,,,,,,2169.0021,2169.395,2169.5869,2176.9581,space,7.1871,0.0014,2176.9581,26,81,2177.9123,2177.9124,2177.9279,,,,0,28,28,28,1,145,20,,,,,,,,
,,6526a0e62c605cc42d9a52e4,65af56226c4c8a399abc700f,2024-01-23_08h04.16.669,bars,2023.2.3,Win32,7.501875469,657b66ea316d21385b68909f,,,,,,,,,,,2177.9281,2178.8763,,,2179.2826,2179.4778,,154,154,,,,,,,,,,,,,,,,bars/022.png,bars/mask009.png,,,,,,,,,,,,0,2,,,,,,,8,6,7,6,,,,,,,,,,,2178.8763,2179.2826,2179.4778,2182.5457,space,2.884,0.0005,2182.5457,59,46,2183.4964,2183.4964,2183.5126,,,,0,29,29,29,1,95,20,,,,,,,,
,,6526a0e62c605cc42d9a52e4,65af56226c4c8a399abc700f,2024-01-23_08h04.16.669,bars,2023.2.3,Win32,7.501875469,657b66ea316d21385b68909f,,,,,,,,,,,2183.5128,2184.4669,,,2184.8579,2185.0585,,40,40,,,,,,,,,,,,,,,,bars/005.png,bars/mask008.png,,,,,,,,,,,,0,1,,,,,,,10,8,10,8,,,,,,,,,,,2184.4669,2184.8578,2185.0586,2194.6991,space,9.4516,,2194.6991,30,80,2195.6402,2195.6403,2195.6421,,,,0,30,30,30,1,10,140,,,,,,,,
,,6526a0e62c605cc42d9a52e4,65af56226c4c8a399abc700f,2024-01-23_08h04.16.669,bars,2023.2.3,Win32,7.501875469,657b66ea316d21385b68909f,,,,,,,,,,,2195.6423,2196.5733,,,2196.9625,2197.1559,,65,65,,,,,,,,,,,,,,,,bars/004.png,bars/mask009.png,,,,,,,,,,,,0,1,,,,,,,8,10,6,9,,,,,,,,,,,2196.5733,2196.9624,2197.156,2198.8371,space,1.5032,0.0003,2198.8371,40,60,2199.7708,2199.7709,2199.7868,,,,0,31,31,31,1,25,125,,,,,,,,
,,6526a0e62c605cc42d9a52e4,65af56226c4c8a399abc700f,2024-01-23_08h04.16.669,bars,2023.2.3,Win32,7.501875469,657b66ea316d21385b68909f,,,,,,,,,,,2199.787,2200.7273,,,2201.1174,2201.3091,,119,119,,,,,,,,,,,,,,,,bars/025.png,bars/mask006.png,,,,,,,,,,,,3,1,,,,,,,6,8,6,8,,,,,,,,,,,2200.7273,2201.1174,2201.3091,2206.2878,space,4.7956,0.0009,2206.2878,14,79,2207.2289,2207.229,2207.2431,,,,0,32,32,32,1,105,40,,,,,,,,
,,6526a0e62c605cc42d9a52e4,65af56226c4c8a399abc700f,2024-01-23_08h04.16.669,bars,2023.2.3,Win32,7.501875469,657b66ea316d21385b68909f,,,,,,,,,,,2207.2433,2208.1726,,,2208.5592,2208.756,,148,-32,,,,,,,,,,,,,,,,bars/006.png,bars/mask006.png,,,,,,,,,,,,0,2,,,,,,,8,10,8,10,,,,,,,,,,,2208.1727,2208.5591,2208.756,2224.9346,space,15.9934,0.0009,2224.9346,67,48,2225.8721,2225.8721,2225.8848,,,,0,33,33,33,1,35,100,,,,,,,,
,,6526a0e62c605cc42d9a52e4,65af56226c4c8a399abc700f,2024-01-23_08h04.16.669,bars,2023.2.3,Win32,7.501875469,657b66ea316d21385b68909f,,,,,,,,,,,2225.885,2226.8189,,,2227.2076,2227.4006,,42,42,,,,,,,,,,,,,,,,bars/036.png,bars/mask000.png,,,,,,,,,,,,3,2,,,,,,,6,8,6,10,,,,,,,,,,,2226.819,2227.2075,2227.4006,2230.0313,space,2.447,,2230.0314,77,22,2230.9703,2230.9704,2230.9817,,,,0,34,34,34,1,145,20,,,,,,,,
,,6526a0e62c605cc42d9a52e4,65af56226c4c8a399abc700f,2024-01-23_08h04.16.669,bars,2023.2.3,Win32,7.501875469,657b66ea316d21385b68909f,,,,,,,,,,,2230.9819,2231.9352,,,2232.332,2232.5284,,57,57,,,,,,,,,,,,,,,,bars/036.png,bars/mask009.png,,,,,,,,,,,,0,2,,,,,,,4,6,4,6,,,,,,,,,,,2231.9352,2232.332,2232.5286,2234.463,space,1.7547,,2234.4631,88,37,2235.4087,2235.4087,2235.4205,,,,0,35,35,35,1,145,20,,,,,,,,
,,6526a0e62c605cc42d9a52e4,65af56226c4c8a399abc700f,2024-01-23_08h04.16.669,bars,2023.2.3,Win32,7.501875469,657b66ea316d21385b68909f,,,,,,,,,,,2235.4207,2236.3672,,,2236.7545,2236.9498,,103,103,,,,,,,,,,,,,,,,bars/021.png,bars/mask000.png,,,,,,,,,,,,0,2,,,,,,,2,4,2,4,,,,,,,,,,,2236.3672,2236.7545,2236.9499,2243.2892,space,6.152,,2243.2893,52,33,2244.2732,2244.2745,2244.2858,,,,0,36,36,36,1,155,70,,,,,,,,
,,6526a0e62c605cc42d9a52e4,65af56226c4c8a399abc700f,2024-01-23_08h04.16.669,bars,2023.2.3,Win32,7.501875469,657b66ea316d21385b68909f,,,,,,,,,,,2244.286,2245.2299,,,2245.6289,2245.8301,,156,156,,,,,,,,,,,,,,,,bars/000.png,bars/mask002.png,,,,,,,,,,,,3,2,,,,,,,4,6,4,4,,,,,,,,,,,2245.2299,2245.6288,2245.8301,2247.5696,space,1.5563,,2247.5696,64,11,2248.5295,2248.5296,2248.5451,,,,0,37,37,37,1,40,145,,,,,,,,
,,6526a0e62c605cc42d9a52e4,65af56226c4c8a399abc700f,2024-01-23_08h04.16.669,bars,2023.2.3,Win32,7.501875469,657b66ea316d21385b68909f,,,,,,,,,,,2248.5454,2249.4928,,,2249.8881,2250.0897,,159,159,,,,,,,,,,,,,,,,bars/034.png,bars/mask003.png,,,,,,,,,,,,0,1,,,,,,,2,8,1,7,,,,,,,,,,,2249.4928,2249.888,2250.0897,2251.8751,space,1.6039,,2251.8751,34,86,2252.8589,2252.8589,2252.8764,,,,0,38,38,38,1,125,65,,,,,,,,
,,6526a0e62c605cc42d9a52e4,65af56226c4c8a399abc700f,2024-01-23_08h04.16.669,bars,2023.2.3,Win32,7.501875469,657b66ea316d21385b68909f,,,,,,,,,,,2252.8766,2253.8407,,,2254.2641,2254.475,,118,118,,,,,,,,,,,,,,,,bars/005.png,bars/mask008.png,,,,,,,,,,,,3,2,,,,,,,4,10,5,10,,,,,,,,,,,2253.8407,2254.2639,2254.4752,2258.0513,space,3.3914,,2258.0513,72,22,2259.0226,2259.0226,2259.0401,,,,0,39,39,39,1,10,140,,,,,,,,
,,6526a0e62c605cc42d9a52e4,65af56226c4c8a399abc700f,2024-01-23_08h04.16.669,bars,2023.2.3,Win32,7.501875469,657b66ea316d21385b68909f,,,,,,,,,,,2259.0405,2260.014,,,2260.4229,2260.6208,,70,70,,,,,,,,,,,,,,,,bars/040.png,bars/mask006.png,,,,,,,,,,,,0,2,,,,,,,6,8,7,7,,,,,,,,,,,2260.014,2260.4229,2260.6208,2263.7495,space,2.9447,0.0004,2263.7496,70,65,2264.7547,2264.7547,2264.7721,,,,0,40,40,40,1,140,5,,,,,,,,
,,6526a0e62c605cc42d9a52e4,65af56226c4c8a399abc700f,2024-01-23_08h04.16.669,bars,2023.2.3,Win32,7.501875469,657b66ea316d21385b68909f,,,,,,,,,,,2264.7726,2265.7793,,,2266.1842,2266.3808,,53,53,,,,,,,,,,,,,,,,bars/018.png,bars/mask002.png,,,,,,,,,,,,0,2,,,,,,,4,6,5,7,,,,,,,,,,,2265.7793,2266.1842,2266.3808,2270.4496,space,3.8849,0.0006,2270.4496,83,37,2271.3874,2271.3875,2271.3882,,,,0,41,41,41,1,150,90,,,,,,,,
,,6526a0e62c605cc42d9a52e4,65af56226c4c8a399abc700f,2024-01-23_08h04.16.669,bars,2023.2.3,Win32,7.501875469,657b66ea316d21385b68909f,,,,,,,,,,,2271.3885,2272.3194,,,2272.7092,2272.9051,,138,138,,,,,,,,,,,,,,,,bars/035.png,bars/mask006.png,,,,,,,,,,,,0,1,,,,,,,6,8,6,9,,,,,,,,,,,2272.3195,2272.7092,2272.9053,2280.1172,space,7.0295,,2280.1172,37,78,2281.0865,2281.0865,2281.0889,,,,0,42,42,42,1,175,60,,,,,,,,
,,6526a0e62c605cc42d9a52e4,65af56226c4c8a399abc700f,2024-01-23_08h04.16.669,bars,2023.2.3,Win32,7.501875469,657b66ea316d21385b68909f,,,,,,,,,,,2281.0894,2282.033,,,2282.4244,2282.6259,,31,31,,,,,,,,,,,,,,,,bars/028.png,bars/mask004.png,,,,,,,,,,,,5,1,,,,,,,8,6,9,7,,,,,,,,,,,2282.033,2282.4244,2282.6259,2286.5014,space,3.6923,,2286.5015,14,89,2287.4481,2287.4481,2287.4596,,,,0,43,43,43,1,45,120,,,,,,,,
,,6526a0e62c605cc42d9a52e4,65af56226c4c8a399abc700f,2024-01-23_08h04.16.669,bars,2023.2.3,Win32,7.501875469,657b66ea316d21385b68909f,,,,,,,,,,,2287.4598,2288.4215,,,2288.816,2289.0154,,12,192,,,,,,,,,,,,,,,,bars/023.png,bars/mask004.png,,,,,,,,,,,,4,1,,,,,,,6,8,5,10,,,,,,,,,,,2288.4215,2288.8159,2289.0155,2296.3964,space,7.1992,,2296.3964,8,77,2297.3671,2297.3671,2297.3797,,,,0,44,44,44,1,20,115,,,,,,,,
,,6526a0e62c605cc42d9a52e4,65af56226c4c8a399abc700f,2024-01-23_08h04.16.669,bars,2023.2.3,Win32,7.501875469,657b66ea316d21385b68909f,,,,,,,,,,,2297.3799,2298.3268,,,2298.7176,2298.9182,,154,-26,,,,,,,,,,,,,,,,bars/032.png,bars/mask004.png,,,,,,,,,,,,0,1,,,,,,,4,10,4,9,,,,,,,,,,,2298.3268,2298.7176,2298.9182,2309.302,space,10.2024,,2309.3021,29,46,2310.2365,2310.2365,2310.2482,,,,0,45,45,45,1,125,20,,,,,,,,
,,6526a0e62c605cc42d9a52e4,65af56226c4c8a399abc700f,2024-01-23_08h04.16.669,bars,2023.2.3,Win32,7.501875469,657b66ea316d21385b68909f,,,,,,,,,,,2310.2485,2311.1757,,,2311.5678,2311.7598,,55,55,,,,,,,,,,,,,,,,bars/043.png,bars/mask004.png,,,,,,,,,,,,0,1,,,,,,,2,8,3,9,,,,,,,,,,,2311.1757,2311.5677,2311.7599,2322.0462,space,10.1025,0.0004,2322.0462,25,75,2322.9743,2322.9744,2322.9892,,,,0,46,46,46,1,30,130,,,,,,,,
,,6526a0e62c605cc42d9a52e4,65af56226c4c8a399abc700f,2024-01-23_08h04.16.669,bars,2023.2.3,Win32,7.501875469,657b66ea316d21385b68909f,,,,,,,,,,,2322.9894,2323.9293,,,2324.3187,2324.5134,,142,142,,,,,,,,,,,,,,,,bars/016.png,bars/mask002.png,,,,,,,,,,,,2,2,,,,,,,4,6,4,9,,,,,,,,,,,2323.9293,2324.3187,2324.5134,2337.307,space,12.6106,0.0004,2337.3071,78,23,2338.2411,2338.2411,2338.256,,,,0,47,47,47,1,40,165,,,,,,,,
,,6526a0e62c605cc42d9a52e4,65af56226c4c8a399abc700f,2024-01-23_08h04.16.669,bars,2023.2.3,Win32,7.501875469,657b66ea316d21385b68909f,,,,,,,,,,,2338.2562,2339.1841,,,2339.5668,2339.7589,,144,144,,,,,,,,,,,,,,,,bars/034.png,bars/mask006.png,,,,,,,,,,,,0,1,,,,,,,2,8,1,7,,,,,,,,,,,2339.1841,2339.5668,2339.759,2351.0356,space,11.0899,,2351.0356,19,79,2351.976,2351.9761,2351.9897,,,,0,48,48,48,1,125,65,,,,,,,,
,,6526a0e62c605cc42d9a52e4,65af56226c4c8a399abc700f,2024-01-23_08h04.16.669,bars,2023.2.3,Win32,7.501875469,657b66ea316d21385b68909f,,,,,,,,,,,2351.9898,2352.9387,,,2353.3251,2353.5201,,122,122,,,,,,,,,,,,,,,,bars/047.png,bars/mask009.png,,,,,,,,,,,,0,2,,,,,,,0,6,0,6,,,,,,,,,,,2352.9388,2353.3251,2353.5202,2361.7417,space,8.0414,,2361.7418,73,52,2362.6948,2362.6948,2362.7072,,,,0,49,49,49,1,15,70,,,,,,,,
,,6526a0e62c605cc42d9a52e4,65af56226c4c8a399abc700f,2024-01-23_08h04.16.669,bars,2023.2.3,Win32,7.501875469,657b66ea316d21385b68909f,,,,,,,,,,,,,,,,,,,,,,,,,,,,,,,,,,,,,,,,,,,,,,,,,,,,,,,,,,,,,,,,,,,,,,,,,,,,,,,,,,,,,,,,,,,,,2362.7073,2422.6534,0,2,2,2,1,sequence_tables/blk005.csv
,,6526a0e62c605cc42d9a52e4,65af56226c4c8a399abc700f,2024-01-23_08h04.16.669,bars,2023.2.3,Win32,7.501875469,657b66ea316d21385b68909f,,,,,,,,,,,2430.8808,2431.8687,,,2432.2842,2432.4804,,53,53,,,,,,,,,,,,,,,,bars/021.png,bars/mask007.png,,,,,,,,,,,,0,2,,,,,,,6,1,6,0,,,,,,2422.6696,2430.7875,space,7.9385,,2431.8687,2432.2842,2432.4804,2441.9334,space,9.2687,0.0005,2441.9334,78,17,2442.9024,2442.9025,2442.9183,,,,0,0,0,0,1,155,70,,,,,,,,
,,6526a0e62c605cc42d9a52e4,65af56226c4c8a399abc700f,2024-01-23_08h04.16.669,bars,2023.2.3,Win32,7.501875469,657b66ea316d21385b68909f,,,,,,,,,,,2442.9187,2443.9027,,,2444.2949,2444.4925,,123,123,,,,,,,,,,,,,,,,bars/010.png,bars/mask006.png,,,,,,,,,,,,0,1,,,,,,,8,3,8,3,,,,,,,,,,,2443.9028,2444.2948,2444.4925,2448.9881,space,4.3124,0.0004,2448.9881,42,68,2449.9988,2449.9989,2450.0157,,,,0,1,1,1,1,165,55,,,,,,,,
,,6526a0e62c605cc42d9a52e4,65af56226c4c8a399abc700f,2024-01-23_08h04.16.669,bars,2023.2.3,Win32,7.501875469,657b66ea316d21385b68909f,,,,,,,,,,,2450.016,2450.9866,,,2451.3787,2451.5764,,25,25,,,,,,,,,,,,,,,,bars/018.png,bars/mask005.png,,,,,,,,,,,,0,1,,,,,,,10,5,10,6,,,,,,,,,,,2450.9867,2451.3787,2451.5764,2458.0073,space,6.2483,,2458.0074,55,65,2458.9366,2458.9367,2458.9503,,,,0,2,2,2,1,150,90,,,,,,,,
,,6526a0e62c605cc42d9a52e4,65af56226c4c8a399abc700f,2024-01-23_08h04.16.669,bars,2023.2.3,Win32,7.501875469,657b66ea316d21385b68909f,,,,,,,,,,,2458.9516,2459.8693,,,2460.2601,2460.4852,,58,58,,,,,,,,,,,,,,,,bars/006.png,bars/mask006.png,,,,,,,,,,,,2,1,,,,,,,10,3,9,2,,,,,,,,,,,2459.8693,2460.26,2460.4852,2462.922,space,2.2631,0.0005,2462.922,23,42,2463.8463,2463.8464,2463.8574,,,,0,3,3,3,1,35,100,,,,,,,,
,,6526a0e62c605cc42d9a52e4,65af56226c4c8a399abc700f,2024-01-23_08h04.16.669,bars,2023.2.3,Win32,7.501875469,657b66ea316d21385b68909f,,,,,,,,,,,2463.8576,2464.7828,,,2465.1652,2465.3601,,59,59,,,,,,,,,,,,,,,,bars/029.png,bars/mask002.png,,,,,,,,,,,,1,2,,,,,,,8,1,7,1,,,,,,,,,,,2464.7828,2465.1652,2465.3602,2470.6423,space,5.1027,,2470.6423,31,14,2471.582,2471.5821,2471.5955,,,,0,4,4,4,1,90,45,,,,,,,,
,,6526a0e62c605cc42d9a52e4,65af56226c4c8a399abc700f,2024-01-23_08h04.16.669,bars,2023.2.3,Win32,7.501875469,657b66ea316d21385b68909f,,,,,,,,,,,2471.5958,2472.5209,,,2472.9071,2473.1038,,66,66,,,,,,,,,,,,,,,,bars/024.png,bars/mask006.png,,,,,,,,,,,,0,1,,,,,,,6,0,6,0,,,,,,,,,,,2472.5209,2472.9071,2473.1038,2488.7838,space,15.5025,,2488.7838,54,76,2489.7154,2489.7155,2489.7308,,,,0,5,5,5,1,120,170,,,,,,,,
,,6526a0e62c605cc42d9a52e4,65af56226c4c8a399abc700f,2024-01-23_08h04.16.669,bars,2023.2.3,Win32,7.501875469,657b66ea316d21385b68909f,,,,,,,,,,,2489.731,2490.6536,,,2491.0469,2491.2387,,26,26,,,,,,,,,,,,,,,,bars/009.png,bars/mask007.png,,,,,,,,,,,,4,1,,,,,,,8,0,7,1,,,,,,,,,,,2490.6536,2491.0469,2491.2387,2496.7177,space,5.3006,0.0006,2496.7177,11,79,2497.7057,2497.7057,2497.7219,,,,0,6,6,6,1,15,105,,,,,,,,
,,6526a0e62c605cc42d9a52e4,65af56226c4c8a399abc700f,2024-01-23_08h04.16.669,bars,2023.2.3,Win32,7.501875469,657b66ea316d21385b68909f,,,,,,,,,,,2497.7222,2498.6979,,,2499.1437,2499.3547,,127,127,,,,,,,,,,,,,,,,bars/021.png,bars/mask000.png,,,,,,,,,,,,1,1,,,,,,,10,2,10,3,,,,,,,,,,,2498.698,2499.1437,2499.3547,2510.5108,space,10.9724,,2510.5109,28,57,2511.5027,2511.5028,2511.5037,,,,0,7,7,7,1,155,70,,,,,,,,
,,6526a0e62c605cc42d9a52e4,65af56226c4c8a399abc700f,2024-01-23_08h04.16.669,bars,2023.2.3,Win32,7.501875469,657b66ea316d21385b68909f,,,,,,,,,,,2511.5042,2512.4852,,,2512.8922,2513.1102,,150,-30,,,,,,,,,,,,,,,,bars/049.png,bars/mask000.png,,,,,,,,,,,,6,1,,,,,,,8,0,9,0,,,,,,,,,,,2512.4853,2512.8922,2513.1103,2526.0879,space,12.7887,0.0006,2526.0879,10,35,2527.0706,2527.0706,2527.0818,,,,0,8,8,8,1,160,115,,,,,,,,
,,6526a0e62c605cc42d9a52e4,65af56226c4c8a399abc700f,2024-01-23_08h04.16.669,bars,2023.2.3,Win32,7.501875469,657b66ea316d21385b68909f,,,,,,,,,,,2527.082,2528.0087,,,2528.3944,2528.5856,,19,199,,,,,,,,,,,,,,,,bars/020.png,bars/mask004.png,,,,,,,,,,,,0,2,,,,,,,6,0,8,0,,,,,,,,,,,2528.0088,2528.3944,2528.5856,2533.7234,space,4.958,0.0005,2533.7234,84,29,2534.6656,2534.6656,2534.6823,,,,0,9,9,9,1,115,170,,,,,,,,
,,6526a0e62c605cc42d9a52e4,65af56226c4c8a399abc700f,2024-01-23_08h04.16.669,bars,2023.2.3,Win32,7.501875469,657b66ea316d21385b68909f,,,,,,,,,,,2534.6826,2535.6234,,,2536.0084,2536.2008,,34,34,,,,,,,,,,,,,,,,bars/035.png,bars/mask006.png,,,,,,,,,,,,0,2,,,,,,,4,2,3,0,,,,,,,,,,,2535.6234,2536.0083,2536.2008,2538.4639,space,2.0837,,2538.4639,39,26,2539.4094,2539.4094,2539.4102,,,,0,10,10,10,1,175,60,,,,,,,,
,,6526a0e62c605cc42d9a52e4,65af56226c4c8a399abc700f,2024-01-23_08h04.16.669,bars,2023.2.3,Win32,7.501875469,657b66ea316d21385b68909f,,,,,,,,,,,2539.4104,2540.3578,,,2540.745,2540.9436,,160,-20,,,,,,,,,,,,,,,,bars/014.png,bars/mask003.png,,,,,,,,,,,,0,2,,,,,,,2,0,2,1,,,,,,,,,,,2540.3578,2540.7449,2540.9437,2558.9078,space,17.7775,0.0005,2558.9079,80,20,2559.8377,2559.8377,2559.8495,,,,0,11,11,11,1,80,0,,,,,,,,
,,6526a0e62c605cc42d9a52e4,65af56226c4c8a399abc700f,2024-01-23_08h04.16.669,bars,2023.2.3,Win32,7.501875469,657b66ea316d21385b68909f,,,,,,,,,,,2559.8497,2560.7705,,,2561.1566,2561.3481,,136,136,,,,,,,,,,,,,,,,bars/015.png,bars/mask001.png,,,,,,,,,,,,0,2,,,,,,,4,2,6,2,,,,,,,,,,,2560.7705,2561.1565,2561.3481,2565.1345,space,3.6075,,2565.1346,26,24,2566.0627,2566.0628,2566.075,,,,0,12,12,12,1,110,160,,,,,,,,
,,6526a0e62c605cc42d9a52e4,65af56226c4c8a399abc700f,2024-01-23_08h04.16.669,bars,2023.2.3,Win32,7.501875469,657b66ea316d21385b68909f,,,,,,,,,,,2566.0751,2567.0017,,,2567.3837,2567.5753,,141,141,,,,,,,,,,,,,,,,bars/037.png,bars/mask002.png,,,,,,,,,,,,1,1,,,,,,,2,0,2,2,,,,,,,,,,,2567.0018,2567.3837,2567.5753,2577.4252,space,9.6725,,2577.4253,9,36,2578.3956,2578.3957,2578.4119,,,,0,13,13,13,1,150,105,,,,,,,,
,,6526a0e62c605cc42d9a52e4,65af56226c4c8a399abc700f,2024-01-23_08h04.16.669,bars,2023.2.3,Win32,7.501875469,657b66ea316d21385b68909f,,,,,,,,,,,2578.4123,2579.3588,,,2579.8488,2580.0535,,151,-29,,,,,,,,,,,,,,,,bars/030.png,bars/mask006.png,,,,,,,,,,,,4,1,,,,,,,4,0,6,0,,,,,,,,,,,2579.3588,2579.8487,2580.0535,2587.1517,space,6.9159,,2587.1517,11,86,2588.1091,2588.1091,2588.1251,,,,0,14,14,14,1,140,65,,,,,,,,
,,6526a0e62c605cc42d9a52e4,65af56226c4c8a399abc700f,2024-01-23_08h04.16.669,bars,2023.2.3,Win32,7.501875469,657b66ea316d21385b68909f,,,,,,,,,,,2588.1255,2589.0813,,,2589.4826,2589.6772,,108,108,,,,,,,,,,,,,,,,bars/048.png,bars/mask009.png,,,,,,,,,,,,0,1,,,,,,,6,2,6,3,,,,,,,,,,,2589.0813,2589.4826,2589.6773,2599.5023,space,9.6408,,2599.5023,58,67,2600.4358,2600.4358,2600.4505,,,,0,15,15,15,1,50,175,,,,,,,,
,,6526a0e62c605cc42d9a52e4,65af56226c4c8a399abc700f,2024-01-23_08h04.16.669,bars,2023.2.3,Win32,7.501875469,657b66ea316d21385b68909f,,,,,,,,,,,2600.4507,2601.376,,,2601.7738,2601.9656,,122,122,,,,,,,,,,,,,,,,bars/007.png,bars/mask006.png,,,,,,,,,,,,0,1,,,,,,,8,4,9,2,,,,,,,,,,,2601.3761,2601.7738,2601.9656,2603.8214,space,1.6715,,2603.8214,53,67,2604.7495,2604.7495,2604.7649,,,,0,16,16,16,1,175,55,,,,,,,,
,,6526a0e62c605cc42d9a52e4,65af56226c4c8a399abc700f,2024-01-23_08h04.16.669,bars,2023.2.3,Win32,7.501875469,657b66ea316d21385b68909f,,,,,,,,,,,2604.7651,2605.6971,,,2606.0836,2606.2757,,53,53,,,,,,,,,,,,,,,,bars/009.png,bars/mask004.png,,,,,,,,,,,,0,1,,,,,,,6,2,5,1,,,,,,,,,,,2605.6972,2606.0836,2606.2758,2610.6192,space,4.158,,2610.6192,38,52,2611.556,2611.5561,2611.5684,,,,0,17,17,17,1,15,105,,,,,,,,
,,6526a0e62c605cc42d9a52e4,65af56226c4c8a399abc700f,2024-01-23_08h04.16.669,bars,2023.2.3,Win32,7.501875469,657b66ea316d21385b68909f,,,,,,,,,,,2611.5687,2612.4958,,,2612.8796,2613.0742,,147,-33,,,,,,,,,,,,,,,,bars/007.png,bars/mask004.png,,,,,,,,,,,,0,1,,,,,,,4,0,4,0,,,,,,,,,,,2612.4959,2612.8795,2613.0742,2629.0352,space,15.782,,2629.0352,28,88,2629.9643,2629.9643,2629.9775,,,,0,18,18,18,1,175,55,,,,,,,,
,,6526a0e62c605cc42d9a52e4,65af56226c4c8a399abc700f,2024-01-23_08h04.16.669,bars,2023.2.3,Win32,7.501875469,657b66ea316d21385b68909f,,,,,,,,,,,2629.9777,2630.8936,,,2631.2989,2631.4926,,155,-25,,,,,,,,,,,,,,,,bars/026.png,bars/mask005.png,,,,,,,,,,,,0,1,,,,,,,6,2,6,2,,,,,,,,,,,2630.8936,2631.2987,2631.4926,2641.7755,space,10.0955,,2641.7755,60,70,2642.7156,2642.7156,2642.7275,,,,0,19,19,19,1,35,85,,,,,,,,
,,6526a0e62c605cc42d9a52e4,65af56226c4c8a399abc700f,2024-01-23_08h04.16.669,bars,2023.2.3,Win32,7.501875469,657b66ea316d21385b68909f,,,,,,,,,,,2642.7277,2643.671,,,2644.0551,2644.2471,,122,122,,,,,,,,,,,,,,,,bars/018.png,bars/mask007.png,,,,,,,,,,,,0,1,,,,,,,8,4,7,6,,,,,,,,,,,2643.6712,2644.055,2644.2471,2645.5446,space,1.1168,,2645.5446,28,32,2646.5115,2646.5116,2646.5123,,,,0,20,20,20,1,150,90,,,,,,,,
,,6526a0e62c605cc42d9a52e4,65af56226c4c8a399abc700f,2024-01-23_08h04.16.669,bars,2023.2.3,Win32,7.501875469,657b66ea316d21385b68909f,,,,,,,,,,,2646.5127,2647.4455,,,2647.8306,2648.0341,,31,31,,,,,,,,,,,,,,,,bars/018.png,bars/mask003.png,,,,,,,,,,,,0,2,,,,,,,10,6,9,8,,,,,,,,,,,2647.4456,2647.8305,2648.0341,2651.2268,space,3.0138,,2651.2268,61,59,2652.1561,2652.1561,2652.1693,,,,0,21,21,21,1,150,90,,,,,,,,
,,6526a0e62c605cc42d9a52e4,65af56226c4c8a399abc700f,2024-01-23_08h04.16.669,bars,2023.2.3,Win32,7.501875469,657b66ea316d21385b68909f,,,,,,,,,,,2652.1695,2653.0925,,,2653.5572,2653.7482,,9,9,,,,,,,,,,,,,,,,bars/041.png,bars/mask006.png,,,,,,,,,,,,5,1,,,,,,,8,4,8,4,,,,,,,,,,,2653.0925,2653.5572,2653.7482,2655.2458,space,1.319,,2655.2458,11,76,2656.1793,2656.1793,2656.1914,,,,0,22,22,22,1,20,85,,,,,,,,
,,6526a0e62c605cc42d9a52e4,65af56226c4c8a399abc700f,2024-01-23_08h04.16.669,bars,2023.2.3,Win32,7.501875469,657b66ea316d21385b68909f,,,,,,,,,,,2656.1916,2657.1268,,,2657.5103,2657.7,,160,160,,,,,,,,,,,,,,,,bars/016.png,bars/mask006.png,,,,,,,,,,,,1,2,,,,,,,10,2,10,1,,,,,,,,,,,2657.1269,2657.5102,2657.7001,2662.4247,space,4.5461,,2662.4248,60,5,2663.3552,2663.3553,2663.3694,,,,0,23,23,23,1,40,165,,,,,,,,
,,6526a0e62c605cc42d9a52e4,65af56226c4c8a399abc700f,2024-01-23_08h04.16.669,bars,2023.2.3,Win32,7.501875469,657b66ea316d21385b68909f,,,,,,,,,,,2663.3696,2664.3026,,,2664.8787,2665.0695,,159,159,,,,,,,,,,,,,,,,bars/011.png,bars/mask002.png,,,,,,,,,,,,10,1,,,,,,,10,4,10,4,,,,,,,,,,,2664.3026,2664.8787,2665.0695,2669.9991,space,4.7458,0.0007,2669.9992,1,74,2670.9672,2670.9673,2670.9806,,,,0,24,24,24,1,160,85,,,,,,,,
,,6526a0e62c605cc42d9a52e4,65af56226c4c8a399abc700f,2024-01-23_08h04.16.669,bars,2023.2.3,Win32,7.501875469,657b66ea316d21385b68909f,,,,,,,,,,,2670.9808,2671.9206,,,2672.3118,2672.5048,,136,136,,,,,,,,,,,,,,,,bars/007.png,bars/mask009.png,,,,,,,,,,,,0,1,,,,,,,10,6,9,5,,,,,,,,,,,2671.9206,2672.3117,2672.5048,2678.1986,space,5.5141,,2678.1986,39,81,2679.1426,2679.1426,2679.1541,,,,0,25,25,25,1,175,55,,,,,,,,
,,6526a0e62c605cc42d9a52e4,65af56226c4c8a399abc700f,2024-01-23_08h04.16.669,bars,2023.2.3,Win32,7.501875469,657b66ea316d21385b68909f,,,,,,,,,,,2679.1543,2680.077,,,2680.5276,2680.7571,,154,154,,,,,,,,,,,,,,,,bars/002.png,bars/mask008.png,,,,,,,,,,,,2,1,,,,,,,10,8,10,9,,,,,,,,,,,2680.0771,2680.5276,2680.7571,2684.9144,space,3.9784,,2684.9145,24,69,2685.8395,2685.8395,2685.8506,,,,0,26,26,26,1,130,85,,,,,,,,
,,6526a0e62c605cc42d9a52e4,65af56226c4c8a399abc700f,2024-01-23_08h04.16.669,bars,2023.2.3,Win32,7.501875469,657b66ea316d21385b68909f,,,,,,,,,,,2685.8509,2686.7754,,,2687.2346,2687.4278,,152,-28,,,,,,,,,,,,,,,,bars/008.png,bars/mask002.png,,,,,,,,,,,,1,2,,,,,,,10,10,10,10,,,,,,,,,,,2686.7754,2687.2346,2687.4278,2698.6973,space,11.0908,,2698.6974,42,28,2699.6244,2699.6245,2699.6417,,,,0,27,27,27,1,110,0,,,,,,,,
,,6526a0e62c605cc42d9a52e4,65af56226c4c8a399abc700f,2024-01-23_08h04.16.669,bars,2023.2.3,Win32,7.501875469,657b66ea316d21385b68909f,,,,,,,,,,,2699.6419,2700.56,,,2700.9479,2701.1422,,35,215,,,,,,,,,,,,,,,,bars/024.png,bars/mask000.png,,,,,,,,,,,,0,2,,,,,,,8,10,8,9,,,,,,,,,,,2700.56,2700.9479,2701.1423,2710.4189,space,9.0951,,2710.419,85,45,2711.3877,2711.3877,2711.403,,,,0,28,28,28,1,120,170,,,,,,,,
,,6526a0e62c605cc42d9a52e4,65af56226c4c8a399abc700f,2024-01-23_08h04.16.669,bars,2023.2.3,Win32,7.501875469,657b66ea316d21385b68909f,,,,,,,,,,,2711.4032,2712.3368,,,2712.7244,2712.9143,,156,156,,,,,,,,,,,,,,,,bars/033.png,bars/mask009.png,,,,,,,,,,,,8,2,,,,,,,6,8,5,8,,,,,,,,,,,2712.3369,2712.7244,2712.9143,2730.3645,space,17.2706,0.0005,2730.3645,49,1,2731.3584,2731.3584,2731.3751,,,,0,29,29,29,1,25,155,,,,,,,,
,,6526a0e62c605cc42d9a52e4,65af56226c4c8a399abc700f,2024-01-23_08h04.16.669,bars,2023.2.3,Win32,7.501875469,657b66ea316d21385b68909f,,,,,,,,,,,2731.3754,2732.3754,,,2732.7703,2732.9809,,144,144,,,,,,,,,,,,,,,,bars/004.png,bars/mask004.png,,,,,,,,,,,,4,2,,,,,,,4,10,5,10,,,,,,,,,,,2732.3755,2732.7702,2732.9809,2740.6288,space,7.4524,0.0004,2740.6289,61,19,2741.5985,2741.5985,2741.6144,,,,0,30,30,30,1,25,125,,,,,,,,
,,6526a0e62c605cc42d9a52e4,65af56226c4c8a399abc700f,2024-01-23_08h04.16.669,bars,2023.2.3,Win32,7.501875469,657b66ea316d21385b68909f,,,,,,,,,,,2741.6147,2742.5837,,,2743.0081,2743.2306,,152,152,,,,,,,,,,,,,,,,bars/012.png,bars/mask004.png,,,,,,,,,,,,0,2,,,,,,,2,8,1,9,,,,,,,,,,,2742.5838,2743.008,2743.2307,2753.1042,space,9.6677,0.0005,2753.1042,62,43,2754.0365,2754.0366,2754.0374,,,,0,31,31,31,1,90,15,,,,,,,,
,,6526a0e62c605cc42d9a52e4,65af56226c4c8a399abc700f,2024-01-23_08h04.16.669,bars,2023.2.3,Win32,7.501875469,657b66ea316d21385b68909f,,,,,,,,,,,2754.0376,2754.9971,,,2755.3877,2755.5811,,28,28,,,,,,,,,,,,,,,,bars/033.png,bars/mask008.png,,,,,,,,,,,,0,1,,,,,,,0,10,0,7,,,,,,,,,,,2754.9971,2755.3877,2755.5812,2759.5923,space,3.8318,,2759.5923,3,53,2760.5647,2760.5648,2760.5797,,,,0,32,32,32,1,25,155,,,,,,,,
,,6526a0e62c605cc42d9a52e4,65af56226c4c8a399abc700f,2024-01-23_08h04.16.669,bars,2023.2.3,Win32,7.501875469,657b66ea316d21385b68909f,,,,,,,,,,,2760.58,2761.5036,,,2761.8957,2762.0858,,28,208,,,,,,,,,,,,,,,,bars/026.png,bars/mask003.png,,,,,,,,,,,,2,1,,,,,,,2,8,2,7,,,,,,,,,,,2761.5036,2761.8956,2762.0858,2774.4451,space,12.181,0.0006,2774.4451,7,57,2775.3782,2775.3783,2775.3911,,,,0,33,33,33,1,35,85,,,,,,,,
,,6526a0e62c605cc42d9a52e4,65af56226c4c8a399abc700f,2024-01-23_08h04.16.669,bars,2023.2.3,Win32,7.501875469,657b66ea316d21385b68909f,,,,,,,,,,,2775.3913,2776.3258,,,2776.7265,2776.9226,,107,107,,,,,,,,,,,,,,,,bars/009.png,bars/mask007.png,,,,,,,,,,,,9,2,,,,,,,0,10,1,10,,,,,,,,,,,2776.3258,2776.7265,2776.9226,2784.9193,space,7.8169,,2784.9193,88,2,2785.8764,2785.8765,2785.89,,,,0,34,34,34,1,15,105,,,,,,,,
,,6526a0e62c605cc42d9a52e4,65af56226c4c8a399abc700f,2024-01-23_08h04.16.669,bars,2023.2.3,Win32,7.501875469,657b66ea316d21385b68909f,,,,,,,,,,,2785.8902,2786.8077,,,2787.2764,2787.4737,,112,112,,,,,,,,,,,,,,,,bars/005.png,bars/mask006.png,,,,,,,,,,,,1,2,,,,,,,2,10,1,10,,,,,,,,,,,2786.8077,2787.2764,2787.4737,2791.9668,space,4.3145,0.0006,2791.9669,78,28,2792.8912,2792.8913,2792.9026,,,,0,35,35,35,1,10,140,,,,,,,,
,,6526a0e62c605cc42d9a52e4,65af56226c4c8a399abc700f,2024-01-23_08h04.16.669,bars,2023.2.3,Win32,7.501875469,657b66ea316d21385b68909f,,,,,,,,,,,2792.9028,2793.8241,,,2794.2085,2794.4044,,67,67,,,,,,,,,,,,,,,,bars/013.png,bars/mask005.png,,,,,,,,,,,,3,1,,,,,,,4,10,4,9,,,,,,,,,,,2793.8242,2794.2085,2794.4044,2800.6647,space,6.0822,,2800.6648,8,57,2801.6012,2801.6012,2801.6148,,,,0,36,36,36,1,75,10,,,,,,,,
,,6526a0e62c605cc42d9a52e4,65af56226c4c8a399abc700f,2024-01-23_08h04.16.669,bars,2023.2.3,Win32,7.501875469,657b66ea316d21385b68909f,,,,,,,,,,,2801.6151,2802.539,,,2802.9322,2803.1258,,114,114,,,,,,,,,,,,,,,,bars/028.png,bars/mask007.png,,,,,,,,,,,,7,2,,,,,,,6,10,6,9,,,,,,,,,,,2802.539,2802.9321,2803.1258,2808.9669,space,5.6519,0.0006,2808.9669,69,6,2809.9438,2809.9438,2809.9568,,,,0,37,37,37,1,45,120,,,,,,,,
,,6526a0e62c605cc42d9a52e4,65af56226c4c8a399abc700f,2024-01-23_08h04.16.669,bars,2023.2.3,Win32,7.501875469,657b66ea316d21385b68909f,,,,,,,,,,,2809.9571,2810.883,,,2811.2702,2811.4666,,132,132,,,,,,,,,,,,,,,,bars/024.png,bars/mask004.png,,,,,,,,,,,,5,1,,,,,,,8,10,9,8,,,,,,,,,,,2810.883,2811.2701,2811.4666,2817.9397,space,6.2941,0.0004,2817.9397,12,38,2818.8668,2818.8668,2818.8793,,,,0,38,38,38,1,120,170,,,,,,,,
,,6526a0e62c605cc42d9a52e4,65af56226c4c8a399abc700f,2024-01-23_08h04.16.669,bars,2023.2.3,Win32,7.501875469,657b66ea316d21385b68909f,,,,,,,,,,,2818.8795,2819.8076,,,2820.1898,2820.3846,,61,61,,,,,,,,,,,,,,,,bars/001.png,bars/mask006.png,,,,,,,,,,,,2,2,,,,,,,6,8,7,9,,,,,,,,,,,2819.8076,2820.1897,2820.3847,2826.025,space,5.4625,0.0003,2826.0251,69,24,2826.9518,2826.9518,2826.9642,,,,0,39,39,39,1,130,85,,,,,,,,
,,6526a0e62c605cc42d9a52e4,65af56226c4c8a399abc700f,2024-01-23_08h04.16.669,bars,2023.2.3,Win32,7.501875469,657b66ea316d21385b68909f,,,,,,,,,,,2826.9645,2827.8893,,,2828.3483,2828.5472,,150,150,,,,,,,,,,,,,,,,bars/039.png,bars/mask009.png,,,,,,,,,,,,1,1,,,,,,,4,6,4,6,,,,,,,,,,,2827.8894,2828.3482,2828.5472,2838.4055,space,9.6806,,2838.4056,25,45,2839.333,2839.333,2839.4028,,,,0,40,40,40,1,175,105,,,,,,,,
,,6526a0e62c605cc42d9a52e4,65af56226c4c8a399abc700f,2024-01-23_08h04.16.669,bars,2023.2.3,Win32,7.501875469,657b66ea316d21385b68909f,,,,,,,,,,,2839.4033,2840.3481,,,2840.7367,2840.9287,,63,63,,,,,,,,,,,,,,,,bars/036.png,bars/mask008.png,,,,,,,,,,,,0,2,,,,,,,6,8,6,9,,,,,,,,,,,2840.3481,2840.7366,2840.9288,2844.8907,space,3.7829,,2844.8908,82,43,2845.8715,2845.8715,2845.8897,,,,0,41,41,41,1,145,20,,,,,,,,
,,6526a0e62c605cc42d9a52e4,65af56226c4c8a399abc700f,2024-01-23_08h04.16.669,bars,2023.2.3,Win32,7.501875469,657b66ea316d21385b68909f,,,,,,,,,,,2845.8902,2846.9102,,,2847.304,2847.4997,,109,109,,,,,,,,,,,,,,,,bars/020.png,bars/mask003.png,,,,,,,,,,,,2,1,,,,,,,4,10,3,10,,,,,,,,,,,2846.9103,2847.3039,2847.4997,2853.1505,space,5.4518,0.0004,2853.1505,6,61,2854.1322,2854.1323,2854.1528,,,,0,42,42,42,1,115,170,,,,,,,,
,,6526a0e62c605cc42d9a52e4,65af56226c4c8a399abc700f,2024-01-23_08h04.16.669,bars,2023.2.3,Win32,7.501875469,657b66ea316d21385b68909f,,,,,,,,,,,2854.1532,2855.1104,,,2855.527,2855.7245,,146,146,,,,,,,,,,,,,,,,bars/007.png,bars/mask003.png,,,,,,,,,,,,0,1,,,,,,,2,10,2,10,,,,,,,,,,,2855.1105,2855.5269,2855.7245,2862.47,space,6.5534,0.0006,2862.47,29,89,2863.4275,2863.4276,2863.4433,,,,0,43,43,43,1,175,55,,,,,,,,
,,6526a0e62c605cc42d9a52e4,65af56226c4c8a399abc700f,2024-01-23_08h04.16.669,bars,2023.2.3,Win32,7.501875469,657b66ea316d21385b68909f,,,,,,,,,,,2863.4436,2864.413,,,2864.8158,2865.0155,,77,77,,,,,,,,,,,,,,,,bars/044.png,bars/mask002.png,,,,,,,,,,,,1,1,,,,,,,0,10,1,10,,,,,,,,,,,2864.4131,2864.8158,2865.0156,2871.0586,space,5.8642,,2871.0586,2,78,2871.9848,2871.9849,2871.9983,,,,0,44,44,44,1,75,155,,,,,,,,
,,6526a0e62c605cc42d9a52e4,65af56226c4c8a399abc700f,2024-01-23_08h04.16.669,bars,2023.2.3,Win32,7.501875469,657b66ea316d21385b68909f,,,,,,,,,,,2871.9985,2872.9195,,,2873.3254,2873.5494,,160,160,,,,,,,,,,,,,,,,bars/000.png,bars/mask009.png,,,,,,,,,,,,5,2,,,,,,,2,10,1,9,,,,,,,,,,,2872.9195,2873.3254,2873.5494,2880.128,space,6.3966,0.0005,2880.1281,60,15,2881.0521,2881.0521,2881.066,,,,0,45,45,45,1,40,145,,,,,,,,
,,6526a0e62c605cc42d9a52e4,65af56226c4c8a399abc700f,2024-01-23_08h04.16.669,bars,2023.2.3,Win32,7.501875469,657b66ea316d21385b68909f,,,,,,,,,,,2881.0662,2881.9854,,,2882.3682,2882.5614,,7,7,,,,,,,,,,,,,,,,bars/024.png,bars/mask009.png,,,,,,,,,,,,4,2,,,,,,,0,10,0,10,,,,,,,,,,,2881.9854,2882.3682,2882.5614,2894.5648,space,11.8241,0.0006,2894.5649,67,17,2895.4954,2895.4954,2895.5081,,,,0,46,46,46,1,120,170,,,,,,,,
,,6526a0e62c605cc42d9a52e4,65af56226c4c8a399abc700f,2024-01-23_08h04.16.669,bars,2023.2.3,Win32,7.501875469,657b66ea316d21385b68909f,,,,,,,,,,,2895.5083,2896.4273,,,2896.817,2897.0076,,167,167,,,,,,,,,,,,,,,,bars/016.png,bars/mask002.png,,,,,,,,,,,,7,2,,,,,,,2,8,3,7,,,,,,,,,,,2896.4274,2896.8169,2897.0077,2902.4756,space,5.2892,,2902.4756,53,2,2903.4102,2903.4103,2903.4234,,,,0,47,47,47,1,40,165,,,,,,,,
,,6526a0e62c605cc42d9a52e4,65af56226c4c8a399abc700f,2024-01-23_08h04.16.669,bars,2023.2.3,Win32,7.501875469,657b66ea316d21385b68909f,,,,,,,,,,,2903.4236,2904.3447,,,2904.7307,2904.9208,,131,131,,,,,,,,,,,,,,,,bars/032.png,bars/mask007.png,,,,,,,,,,,,4,1,,,,,,,4,10,5,8,,,,,,,,,,,2904.3448,2904.7307,2904.9208,2915.3235,space,10.2237,,2915.3235,6,69,2916.2593,2916.2593,2916.2733,,,,0,48,48,48,1,125,20,,,,,,,,
,,6526a0e62c605cc42d9a52e4,65af56226c4c8a399abc700f,2024-01-23_08h04.16.669,bars,2023.2.3,Win32,7.501875469,657b66ea316d21385b68909f,,,,,,,,,,,2916.2735,2917.1983,,,2917.5836,2917.7735,,139,139,,,,,,,,,,,,,,,,bars/024.png,bars/mask007.png,,,,,,,,,,,,2,1,,,,,,,6,8,6,10,,,,,,,,,,,2917.1983,2917.5836,2917.7735,2927.7534,space,9.8005,,2927.7534,19,31,2928.6849,2928.6849,2928.6988,,,,0,49,49,49,1,120,170,,,,,,,,
,,6526a0e62c605cc42d9a52e4,65af56226c4c8a399abc700f,2024-01-23_08h04.16.669,bars,2023.2.3,Win32,7.501875469,657b66ea316d21385b68909f,,,,,,,,,,,,,,,,,,,,,,,,,,,,,,,,,,,,,,,,,,,,,,,,,,,,,,,,,,,,,,,,,,,,,,,,,,,,,,,,,,,,,,,,,,,,,2928.6989,2988.7312,0,3,3,1,1,sequence_tables/blk045.csv
,,6526a0e62c605cc42d9a52e4,65af56226c4c8a399abc700f,2024-01-23_08h04.16.669,bars,2023.2.3,Win32,7.501875469,657b66ea316d21385b68909f,,,,,,,,,,,2996.3329,2997.3059,,,2997.7316,2997.9294,,68,68,,,,,,,,,,,,,,,,bars/019.png,bars/mask001.png,,,,,,,,,,,,2,1,,,,,,,7,6,8,7,,,,,,2988.7485,2996.2935,space,7.3693,,2997.3061,2997.7315,2997.9295,3003.2436,space,5.1303,0.0005,3003.2438,23,37,3004.2183,3004.2184,3004.2338,,,,0,0,0,0,1,45,105,,,,,,,,
,,6526a0e62c605cc42d9a52e4,65af56226c4c8a399abc700f,2024-01-23_08h04.16.669,bars,2023.2.3,Win32,7.501875469,657b66ea316d21385b68909f,,,,,,,,,,,3004.2342,3005.1854,,,3005.6101,3005.8064,,157,157,,,,,,,,,,,,,,,,bars/023.png,bars/mask009.png,,,,,,,,,,,,0,2,,,,,,,5,4,7,3,,,,,,,,,,,3005.1855,3005.6101,3005.8064,3010.8745,space,4.8858,,3010.8745,43,42,3011.8264,3011.8266,3011.8428,,,,0,1,1,1,1,20,115,,,,,,,,
,,6526a0e62c605cc42d9a52e4,65af56226c4c8a399abc700f,2024-01-23_08h04.16.669,bars,2023.2.3,Win32,7.501875469,657b66ea316d21385b68909f,,,,,,,,,,,3011.8431,3012.7666,,,3013.2428,3013.4347,,101,101,,,,,,,,,,,,,,,,bars/021.png,bars/mask000.png,,,,,,,,,,,,0,2,,,,,,,3,2,2,2,,,,,,,,,,,3012.7666,3013.2427,3013.4347,3015.6185,space,2.0017,0.0006,3015.6186,54,31,3016.5602,3016.5604,3016.5766,,,,0,2,2,2,1,155,70,,,,,,,,
,,6526a0e62c605cc42d9a52e4,65af56226c4c8a399abc700f,2024-01-23_08h04.16.669,bars,2023.2.3,Win32,7.501875469,657b66ea316d21385b68909f,,,,,,,,,,,3016.5769,3017.5721,,,3017.9808,3018.1934,,147,147,,,,,,,,,,,,,,,,bars/044.png,bars/mask009.png,,,,,,,,,,,,0,2,,,,,,,1,0,0,0,,,,,,,,,,,3017.5722,3017.9808,3018.1934,3026.6157,space,8.2413,0.0006,3026.6158,72,8,3027.5641,3027.5641,3027.5774,,,,0,3,3,3,1,75,155,,,,,,,,
,,6526a0e62c605cc42d9a52e4,65af56226c4c8a399abc700f,2024-01-23_08h04.16.669,bars,2023.2.3,Win32,7.501875469,657b66ea316d21385b68909f,,,,,,,,,,,3027.5776,3028.5277,,,3028.9755,3029.1713,,152,152,,,,,,,,,,,,,,,,bars/046.png,bars/mask000.png,,,,,,,,,,,,4,1,,,,,,,3,0,4,0,,,,,,,,,,,3028.5277,3028.9755,3029.1713,3033.7859,space,4.4339,,3033.7859,3,67,3034.753,3034.7531,3034.7667,,,,0,4,4,4,1,155,85,,,,,,,,
,,6526a0e62c605cc42d9a52e4,65af56226c4c8a399abc700f,2024-01-23_08h04.16.669,bars,2023.2.3,Win32,7.501875469,657b66ea316d21385b68909f,,,,,,,,,,,3034.7669,3035.718,,,3036.1307,3036.3366,,152,152,,,,,,,,,,,,,,,,bars/036.png,bars/mask006.png,,,,,,,,,,,,2,1,,,,,,,1,2,2,1,,,,,,,,,,,3035.7181,3036.1307,3036.3367,3046.3504,space,9.8183,,3046.3504,7,48,3047.3222,3047.3223,3047.336,,,,0,5,5,5,1,145,20,,,,,,,,
,,6526a0e62c605cc42d9a52e4,65af56226c4c8a399abc700f,2024-01-23_08h04.16.669,bars,2023.2.3,Win32,7.501875469,657b66ea316d21385b68909f,,,,,,,,,,,3047.3364,3048.3171,,,3048.7297,3048.9228,,17,17,,,,,,,,,,,,,,,,bars/038.png,bars/mask008.png,,,,,,,,,,,,0,1,,,,,,,0,4,0,5,,,,,,,,,,,3048.3172,3048.7297,3048.9229,3058.9199,space,9.8152,,3058.9199,32,53,3059.88,3059.88,3059.896,,,,0,6,6,6,1,165,70,,,,,,,,
,,6526a0e62c605cc42d9a52e4,65af56226c4c8a399abc700f,2024-01-23_08h04.16.669,bars,2023.2.3,Win32,7.501875469,657b66ea316d21385b68909f,,,,,,,,,,,3059.8962,3060.8776,,,3061.2804,3061.482,,136,136,,,,,,,,,,,,,,,,bars/041.png,bars/mask006.png,,,,,,,,,,,,0,2,,,,,,,2,6,1,5,,,,,,,,,,,3060.8776,3061.2804,3061.482,3066.1938,space,4.5281,,3066.1938,64,51,3067.1455,3067.1456,3067.1627,,,,0,7,7,7,1,20,85,,,,,,,,
