init_variables.started,init_variables.stopped,participant,session,date,expName,psychopyVersion,OS,frameRate,study_id,instruction_exp.started,instruction_exp.stopped,key_resp_8.keys,key_resp_8.rt,key_resp_8.duration,instruction_single.started,instruction_single.stopped,key_resp_2.keys,key_resp_2.rt,key_resp_2.duration,interval.started,interval.stopped,cue_single.started,cue_single.stopped,mask.started,mask.stopped,ori_response_single.started,res_ori,res,ori_response_single.stopped,key_resp_single.keys,key_resp_single.rt,key_resp_single.duration,disp_single.started,disp_single.stopped,key_resp.keys,key_resp.rt,key_resp.duration,single.thisRepN,single.thisTrialN,single.thisN,single.thisIndex,single.ran,ori,path,mask_path,instruction_bandit.started,instruction_bandit.stopped,key_resp_6.keys,key_resp_6.rt,key_resp_6.duration,cue_bandit.started,cue_bandit.stopped,bandit_res.keys,bandit_res.rt,bandit_res.duration,outcome_bandit.started,rew,action,outcome_bandit.stopped,bandit.thisRepN,bandit.thisTrialN,bandit.thisN,bandit.thisIndex,bandit.ran,actual_rew1,actual_rew2,rew1,rew2,instruction_task.started,instruction_task.stopped,key_resp_7.keys,key_resp_7.rt,key_resp_7.duration,wait_ready.started,wait_ready.stopped,key_resp_3.keys,key_resp_3.rt,key_resp_3.duration,cue.started,cue.stopped,ori_response.started,ori_response.stopped,key_resp_5.keys,key_resp_5.rt,key_resp_5.duration,outcome.started,diff1,diff2,outcome.stopped,disp_outcome_practice.started,disp_outcome_practice.stopped,key_resp_4.keys,key_resp_4.rt,key_resp_4.duration,trials.thisRepN,trials.thisTrialN,trials.thisN,trials.thisIndex,trials.ran,ori1,ori2,break_blk.started,break_blk.stopped,block.thisRepN,block.thisTrialN,block.thisN,block.thisIndex,block.ran,condition_file
0.0004,0.0004,656f94ed904a54c0c02bdc2a,65af547f72f417c9b9fa8802,2024-01-23_06h54.59.061,bars,2023.2.3,Win32,15.55209953,657b66ea316d21385b68909f,,,,,,,,,,,,,,,,,,,,,,,,,,,,,,,,,,,,,,,,,,,,,,,,,,,,,,,,,,,,,,,,,,,,,,,,,,,,,,,,,,,,,,,,,,,,,,,,,,,,
,,656f94ed904a54c0c02bdc2a,65af547f72f417c9b9fa8802,2024-01-23_06h54.59.061,bars,2023.2.3,Win32,15.55209953,657b66ea316d21385b68909f,0.0005,93.957,y,93.8836,,,,,,,,,,,,,,,,,,,,,,,,,,,,,,,,,,,,,,,,,,,,,,,,,,,,,,,,,,,,,,,,,,,,,,,,,,,,,,,,,,,,,,,,,,,,,,,,
,,656f94ed904a54c0c02bdc2a,65af547f72f417c9b9fa8802,2024-01-23_06h54.59.061,bars,2023.2.3,Win32,15.55209953,657b66ea316d21385b68909f,,,,,,93.9571,102.4506,space,8.4162,,,,,,,,,,,,,,,,,,,,,,,,,,,,,,,,,,,,,,,,,,,,,,,,,,,,,,,,,,,,,,,,,,,,,,,,,,,,,,,,,,,,,,,,,,,
,,656f94ed904a54c0c02bdc2a,65af547f72f417c9b9fa8802,2024-01-23_06h54.59.061,bars,2023.2.3,Win32,15.55209953,657b66ea316d21385b68909f,,,,,,,,,,,102.4533,103.4484,103.4484,103.9394,103.9395,104.1965,104.1966,44,44,142.4373,space,38.1478,,142.4374,148.1493,space,5.6181,,0,0,0,1,1,20,bars/single001.png,bars/mask006.png,,,,,,,,,,,,,,,,,,,,,,,,,,,,,,,,,,,,,,,,,,,,,,,,,,,,,,,,,,,,,,,,
,,656f94ed904a54c0c02bdc2a,65af547f72f417c9b9fa8802,2024-01-23_06h54.59.061,bars,2023.2.3,Win32,15.55209953,657b66ea316d21385b68909f,,,,,,,,,,,148.1541,149.1047,149.1047,149.5936,149.5936,149.8346,149.8346,6,6,152.9486,space,3.0405,,152.9486,157.7537,space,4.7154,,0,1,1,3,1,20,bars/single003.png,bars/mask005.png,,,,,,,,,,,,,,,,,,,,,,,,,,,,,,,,,,,,,,,,,,,,,,,,,,,,,,,,,,,,,,,,
,,656f94ed904a54c0c02bdc2a,65af547f72f417c9b9fa8802,2024-01-23_06h54.59.061,bars,2023.2.3,Win32,15.55209953,657b66ea316d21385b68909f,,,,,,,,,,,157.7585,158.7525,158.7525,159.2564,159.2565,159.5168,159.5169,97,97,162.769,space,3.1652,,162.769,166.0213,space,3.1734,,0,2,2,4,1,95,bars/single004.png,bars/mask004.png,,,,,,,,,,,,,,,,,,,,,,,,,,,,,,,,,,,,,,,,,,,,,,,,,,,,,,,,,,,,,,,,
,,656f94ed904a54c0c02bdc2a,65af547f72f417c9b9fa8802,2024-01-23_06h54.59.061,bars,2023.2.3,Win32,15.55209953,657b66ea316d21385b68909f,,,,,,,,,,,166.0215,166.9965,166.9965,167.4322,167.4323,167.7017,167.7017,26,206,178.0361,space,10.258,,178.0361,182.5408,space,4.4256,,0,3,3,7,1,45,bars/single007.png,bars/mask009.png,,,,,,,,,,,,,,,,,,,,,,,,,,,,,,,,,,,,,,,,,,,,,,,,,,,,,,,,,,,,,,,,
,,656f94ed904a54c0c02bdc2a,65af547f72f417c9b9fa8802,2024-01-23_06h54.59.061,bars,2023.2.3,Win32,15.55209953,657b66ea316d21385b68909f,,,,,,,,,,,182.5457,183.5179,183.518,184.0084,184.0084,184.2538,184.2538,60,60,188.7858,space,4.4569,,188.7859,190.7513,space,1.8819,,0,4,4,5,1,55,bars/single005.png,bars/mask008.png,,,,,,,,,,,,,,,,,,,,,,,,,,,,,,,,,,,,,,,,,,,,,,,,,,,,,,,,,,,,,,,,
,,656f94ed904a54c0c02bdc2a,65af547f72f417c9b9fa8802,2024-01-23_06h54.59.061,bars,2023.2.3,Win32,15.55209953,657b66ea316d21385b68909f,,,,,,,,,,,190.7517,191.7565,191.7565,192.2287,192.2287,192.4121,192.4121,177,177,194.6932,space,2.2064,,194.6932,198.2995,space,3.5246,,0,5,5,9,1,20,bars/single009.png,bars/mask006.png,,,,,,,,,,,,,,,,,,,,,,,,,,,,,,,,,,,,,,,,,,,,,,,,,,,,,,,,,,,,,,,,
,,656f94ed904a54c0c02bdc2a,65af547f72f417c9b9fa8802,2024-01-23_06h54.59.061,bars,2023.2.3,Win32,15.55209953,657b66ea316d21385b68909f,,,,,,,,,,,198.3047,199.331,199.331,199.8413,199.8414,200.0997,200.0997,150,-30,205.0245,space,4.8461,,205.0245,206.9881,space,1.8767,,0,6,6,2,1,145,bars/single002.png,bars/mask003.png,,,,,,,,,,,,,,,,,,,,,,,,,,,,,,,,,,,,,,,,,,,,,,,,,,,,,,,,,,,,,,,,
,,656f94ed904a54c0c02bdc2a,65af547f72f417c9b9fa8802,2024-01-23_06h54.59.061,bars,2023.2.3,Win32,15.55209953,657b66ea316d21385b68909f,,,,,,,,,,,206.9883,207.9753,207.9753,208.466,208.466,208.7216,208.7216,161,-19,213.6198,space,4.8096,,213.6198,215.5827,space,1.8825,,0,7,7,0,1,150,bars/single000.png,bars/mask006.png,,,,,,,,,,,,,,,,,,,,,,,,,,,,,,,,,,,,,,,,,,,,,,,,,,,,,,,,,,,,,,,,
,,656f94ed904a54c0c02bdc2a,65af547f72f417c9b9fa8802,2024-01-23_06h54.59.061,bars,2023.2.3,Win32,15.55209953,657b66ea316d21385b68909f,,,,,,,,,,,215.583,216.551,216.551,217.0492,217.0493,217.3052,217.3052,177,177,222.6535,space,5.2726,,222.6535,224.4137,space,1.6642,,0,8,8,6,1,175,bars/single006.png,bars/mask005.png,,,,,,,,,,,,,,,,,,,,,,,,,,,,,,,,,,,,,,,,,,,,,,,,,,,,,,,,,,,,,,,,
,,656f94ed904a54c0c02bdc2a,65af547f72f417c9b9fa8802,2024-01-23_06h54.59.061,bars,2023.2.3,Win32,15.55209953,657b66ea316d21385b68909f,,,,,,,,,,,224.414,225.3877,225.3877,225.8971,225.8971,226.1661,226.1661,167,-13,232.2972,space,6.0411,,232.2972,233.9487,space,1.5669,,0,9,9,8,1,160,bars/single008.png,bars/mask004.png,,,,,,,,,,,,,,,,,,,,,,,,,,,,,,,,,,,,,,,,,,,,,,,,,,,,,,,,,,,,,,,,
,,656f94ed904a54c0c02bdc2a,65af547f72f417c9b9fa8802,2024-01-23_06h54.59.061,bars,2023.2.3,Win32,15.55209953,657b66ea316d21385b68909f,,,,,,,,,,,,,,,,,,,,,,,,,,,,,,,,,,,,,233.9491,271.7289,space,37.7045,,,,,,,,,,,,,,,,,,,,,,,,,,,,,,,,,,,,,,,,,,,,,,,,,,,,,,,,,,,,
,,656f94ed904a54c0c02bdc2a,65af547f72f417c9b9fa8802,2024-01-23_06h54.59.061,bars,2023.2.3,Win32,15.55209953,657b66ea316d21385b68909f,,,,,,,,,,,,,,,,,,,,,,,,,,,,,,,,,,,,,,,,,,271.7351,277.3095,right,5.4928,,277.3096,2,2,278.3082,0,0,0,0,1,9,1,9,2,,,,,,,,,,,,,,,,,,,,,,,,,,,,,,,,,,,,,,,,,
,,656f94ed904a54c0c02bdc2a,65af547f72f417c9b9fa8802,2024-01-23_06h54.59.061,bars,2023.2.3,Win32,15.55209953,657b66ea316d21385b68909f,,,,,,,,,,,,,,,,,,,,,,,,,,,,,,,,,,,,,,,,,,278.3087,279.6046,left,1.2163,,279.6047,10,1,280.6229,0,1,1,1,1,10,0,10,1,,,,,,,,,,,,,,,,,,,,,,,,,,,,,,,,,,,,,,,,,
,,656f94ed904a54c0c02bdc2a,65af547f72f417c9b9fa8802,2024-01-23_06h54.59.061,bars,2023.2.3,Win32,15.55209953,657b66ea316d21385b68909f,,,,,,,,,,,,,,,,,,,,,,,,,,,,,,,,,,,,,,,,,,280.6231,282.0659,left,1.3537,,282.0659,10,1,283.0381,0,2,2,2,1,10,2,10,2,,,,,,,,,,,,,,,,,,,,,,,,,,,,,,,,,,,,,,,,,
,,656f94ed904a54c0c02bdc2a,65af547f72f417c9b9fa8802,2024-01-23_06h54.59.061,bars,2023.2.3,Win32,15.55209953,657b66ea316d21385b68909f,,,,,,,,,,,,,,,,,,,,,,,,,,,,,,,,,,,,,,,,,,283.0383,284.7433,right,1.6324,,284.7434,3,2,285.7472,0,3,3,3,1,8,4,7,3,,,,,,,,,,,,,,,,,,,,,,,,,,,,,,,,,,,,,,,,,
,,656f94ed904a54c0c02bdc2a,65af547f72f417c9b9fa8802,2024-01-23_06h54.59.061,bars,2023.2.3,Win32,15.55209953,657b66ea316d21385b68909f,,,,,,,,,,,,,,,,,,,,,,,,,,,,,,,,,,,,,,,,,,285.7474,286.2624,left,0.4399,,286.2625,5,1,287.2547,0,4,4,4,1,6,2,5,1,,,,,,,,,,,,,,,,,,,,,,,,,,,,,,,,,,,,,,,,,
,,656f94ed904a54c0c02bdc2a,65af547f72f417c9b9fa8802,2024-01-23_06h54.59.061,bars,2023.2.3,Win32,15.55209953,657b66ea316d21385b68909f,,,,,,,,,,,,,,,,,,,,,,,,,,,,,,,,,,,,,,,,,,287.255,288.1866,left,0.8472,,288.1866,4,1,289.1834,0,5,5,5,1,4,4,4,4,,,,,,,,,,,,,,,,,,,,,,,,,,,,,,,,,,,,,,,,,
,,656f94ed904a54c0c02bdc2a,65af547f72f417c9b9fa8802,2024-01-23_06h54.59.061,bars,2023.2.3,Win32,15.55209953,657b66ea316d21385b68909f,,,,,,,,,,,,,,,,,,,,,,,,,,,,,,,,,,,,,,,,,,289.1836,290.4303,right,1.1561,,290.4304,2,2,291.4217,0,6,6,6,1,2,2,1,2,,,,,,,,,,,,,,,,,,,,,,,,,,,,,,,,,,,,,,,,,
,,656f94ed904a54c0c02bdc2a,65af547f72f417c9b9fa8802,2024-01-23_06h54.59.061,bars,2023.2.3,Win32,15.55209953,657b66ea316d21385b68909f,,,,,,,,,,,,,,,,,,,,,,,,,,,,,,,,,,,,,,,,,,291.4219,292.3911,left,0.8811,,292.3911,0,1,293.3396,0,7,7,7,1,0,0,0,1,,,,,,,,,,,,,,,,,,,,,,,,,,,,,,,,,,,,,,,,,
,,656f94ed904a54c0c02bdc2a,65af547f72f417c9b9fa8802,2024-01-23_06h54.59.061,bars,2023.2.3,Win32,15.55209953,657b66ea316d21385b68909f,,,,,,,,,,,,,,,,,,,,,,,,,,,,,,,,,,,,,,,,,,293.3398,293.846,right,0.4283,,293.846,0,2,294.8225,0,8,8,8,1,0,2,1,0,,,,,,,,,,,,,,,,,,,,,,,,,,,,,,,,,,,,,,,,,
,,656f94ed904a54c0c02bdc2a,65af547f72f417c9b9fa8802,2024-01-23_06h54.59.061,bars,2023.2.3,Win32,15.55209953,657b66ea316d21385b68909f,,,,,,,,,,,,,,,,,,,,,,,,,,,,,,,,,,,,,,,,,,294.8227,295.3239,right,0.4308,,295.3239,3,2,296.3084,0,9,9,9,1,2,4,2,3,,,,,,,,,,,,,,,,,,,,,,,,,,,,,,,,,,,,,,,,,
,,656f94ed904a54c0c02bdc2a,65af547f72f417c9b9fa8802,2024-01-23_06h54.59.061,bars,2023.2.3,Win32,15.55209953,657b66ea316d21385b68909f,,,,,,,,,,,,,,,,,,,,,,,,,,,,,,,,,,,,,,,,,,296.3088,297.7754,left,1.3929,,297.7754,0,1,298.7465,0,10,10,10,1,0,2,0,3,,,,,,,,,,,,,,,,,,,,,,,,,,,,,,,,,,,,,,,,,
,,656f94ed904a54c0c02bdc2a,65af547f72f417c9b9fa8802,2024-01-23_06h54.59.061,bars,2023.2.3,Win32,15.55209953,657b66ea316d21385b68909f,,,,,,,,,,,,,,,,,,,,,,,,,,,,,,,,,,,,,,,,,,298.7467,302.3683,right,3.5405,,302.3684,3,2,303.3709,0,11,11,11,1,0,4,0,3,,,,,,,,,,,,,,,,,,,,,,,,,,,,,,,,,,,,,,,,,
,,656f94ed904a54c0c02bdc2a,65af547f72f417c9b9fa8802,2024-01-23_06h54.59.061,bars,2023.2.3,Win32,15.55209953,657b66ea316d21385b68909f,,,,,,,,,,,,,,,,,,,,,,,,,,,,,,,,,,,,,,,,,,303.3761,303.9589,right,0.5094,,303.9589,6,2,304.9509,0,12,12,12,1,2,6,1,6,,,,,,,,,,,,,,,,,,,,,,,,,,,,,,,,,,,,,,,,,
,,656f94ed904a54c0c02bdc2a,65af547f72f417c9b9fa8802,2024-01-23_06h54.59.061,bars,2023.2.3,Win32,15.55209953,657b66ea316d21385b68909f,,,,,,,,,,,,,,,,,,,,,,,,,,,,,,,,,,,,,,,,,,304.9512,305.9121,right,0.8827,,305.9121,3,2,306.9015,0,13,13,13,1,0,4,1,3,,,,,,,,,,,,,,,,,,,,,,,,,,,,,,,,,,,,,,,,,
,,656f94ed904a54c0c02bdc2a,65af547f72f417c9b9fa8802,2024-01-23_06h54.59.061,bars,2023.2.3,Win32,15.55209953,657b66ea316d21385b68909f,,,,,,,,,,,,,,,,,,,,,,,,,,,,,,,,,,,,,,,,,,306.9018,307.3402,left,0.3514,,307.3403,2,1,308.3101,0,14,14,14,1,2,6,2,7,,,,,,,,,,,,,,,,,,,,,,,,,,,,,,,,,,,,,,,,,
,,656f94ed904a54c0c02bdc2a,65af547f72f417c9b9fa8802,2024-01-23_06h54.59.061,bars,2023.2.3,Win32,15.55209953,657b66ea316d21385b68909f,,,,,,,,,,,,,,,,,,,,,,,,,,,,,,,,,,,,,,,,,,308.3104,308.7307,right,0.3464,,308.7308,9,2,309.6891,0,15,15,15,1,4,8,3,9,,,,,,,,,,,,,,,,,,,,,,,,,,,,,,,,,,,,,,,,,
,,656f94ed904a54c0c02bdc2a,65af547f72f417c9b9fa8802,2024-01-23_06h54.59.061,bars,2023.2.3,Win32,15.55209953,657b66ea316d21385b68909f,,,,,,,,,,,,,,,,,,,,,,,,,,,,,,,,,,,,,,,,,,309.6893,320.9478,left,11.1706,,320.9478,7,1,321.9587,0,16,16,16,1,6,6,7,7,,,,,,,,,,,,,,,,,,,,,,,,,,,,,,,,,,,,,,,,,
,,656f94ed904a54c0c02bdc2a,65af547f72f417c9b9fa8802,2024-01-23_06h54.59.061,bars,2023.2.3,Win32,15.55209953,657b66ea316d21385b68909f,,,,,,,,,,,,,,,,,,,,,,,,,,,,,,,,,,,,,,,,,,321.9641,322.9176,right,0.8774,,322.9176,5,2,323.8864,0,17,17,17,1,8,4,9,5,,,,,,,,,,,,,,,,,,,,,,,,,,,,,,,,,,,,,,,,,
,,656f94ed904a54c0c02bdc2a,65af547f72f417c9b9fa8802,2024-01-23_06h54.59.061,bars,2023.2.3,Win32,15.55209953,657b66ea316d21385b68909f,,,,,,,,,,,,,,,,,,,,,,,,,,,,,,,,,,,,,,,,,,323.8867,324.5435,left,0.5798,,324.5435,5,1,325.5443,0,18,18,18,1,6,2,5,1,,,,,,,,,,,,,,,,,,,,,,,,,,,,,,,,,,,,,,,,,
,,656f94ed904a54c0c02bdc2a,65af547f72f417c9b9fa8802,2024-01-23_06h54.59.061,bars,2023.2.3,Win32,15.55209953,657b66ea316d21385b68909f,,,,,,,,,,,,,,,,,,,,,,,,,,,,,,,,,,,,,,,,,,325.5447,326.4573,right,0.8423,,326.4574,0,2,327.4771,0,19,19,19,1,8,0,7,0,,,,,,,,,,,,,,,,,,,,,,,,,,,,,,,,,,,,,,,,,
,,656f94ed904a54c0c02bdc2a,65af547f72f417c9b9fa8802,2024-01-23_06h54.59.061,bars,2023.2.3,Win32,15.55209953,657b66ea316d21385b68909f,,,,,,,,,,,,,,,,,,,,,,,,,,,,,,,,,,,,,,,,,,,,,,,,,,,,,,,,,,,,327.4775,361.889,space,34.3371,,,,,,,,,,,,,,,,,,,,,,,,,,,,,,,,,,,,,
,,656f94ed904a54c0c02bdc2a,65af547f72f417c9b9fa8802,2024-01-23_06h54.59.061,bars,2023.2.3,Win32,15.55209953,657b66ea316d21385b68909f,,,,,,,,,,,363.3663,364.3755,,,364.8702,365.1251,,16,16,,,,,,,,,,,,,,,,bars/028.png,bars/mask008.png,,,,,,,,,,,,0,1,,,,,,,9,4,9,4,,,,,,361.8951,363.3644,space,1.3927,,364.3758,364.8702,365.1253,370.3411,space,5.1227,,370.3412,29,76,371.2908,371.291,377.8445,space,6.4572,,0,0,0,0,1,45,120,,,,,,,,
,,656f94ed904a54c0c02bdc2a,65af547f72f417c9b9fa8802,2024-01-23_06h54.59.061,bars,2023.2.3,Win32,15.55209953,657b66ea316d21385b68909f,,,,,,,,,,,377.8504,378.8609,,,379.384,379.5621,,104,104,,,,,,,,,,,,,,,,bars/034.png,bars/mask000.png,,,,,,,,,,,,2,1,,,,,,,7,2,7,0,,,,,,,,,,,378.8609,379.3839,379.5621,382.3305,space,2.6844,,382.3305,21,39,383.2905,383.2906,387.1751,space,3.8018,,0,1,1,1,1,125,65,,,,,,,,
,,656f94ed904a54c0c02bdc2a,65af547f72f417c9b9fa8802,2024-01-23_06h54.59.061,bars,2023.2.3,Win32,15.55209953,657b66ea316d21385b68909f,,,,,,,,,,,387.1811,388.1564,,,388.5942,388.8481,,179,-1,,,,,,,,,,,,,,,,bars/012.png,bars/mask005.png,,,,,,,,,,,,0,2,,,,,,,9,0,8,1,,,,,,,,,,,388.1565,388.5941,388.8482,393.5049,space,4.568,,393.5051,89,16,394.4866,394.4867,398.6257,space,4.0575,,0,2,2,2,1,90,15,,,,,,,,
,,656f94ed904a54c0c02bdc2a,65af547f72f417c9b9fa8802,2024-01-23_06h54.59.061,bars,2023.2.3,Win32,15.55209953,657b66ea316d21385b68909f,,,,,,,,,,,398.6308,399.6131,,,400.0558,400.3024,,122,122,,,,,,,,,,,,,,,,bars/018.png,bars/mask003.png,,,,,,,,,,,,1,1,,,,,,,7,2,8,2,,,,,,,,,,,399.6133,400.0558,400.3025,407.6025,space,7.2098,,407.6025,28,32,408.6095,408.6096,412.4013,space,3.7106,,0,3,3,3,1,150,90,,,,,,,,
,,656f94ed904a54c0c02bdc2a,65af547f72f417c9b9fa8802,2024-01-23_06h54.59.061,bars,2023.2.3,Win32,15.55209953,657b66ea316d21385b68909f,,,,,,,,,,,412.4064,413.3856,,,413.8931,414.1541,,152,152,,,,,,,,,,,,,,,,bars/003.png,bars/mask005.png,,,,,,,,,,,,2,2,,,,,,,9,4,9,4,,,,,,,,,,,413.3856,413.8931,414.1541,420.365,space,6.1222,,420.3651,53,12,421.3653,421.3654,424.4304,space,2.9811,,0,4,4,4,1,25,140,,,,,,,,
,,656f94ed904a54c0c02bdc2a,65af547f72f417c9b9fa8802,2024-01-23_06h54.59.061,bars,2023.2.3,Win32,15.55209953,657b66ea316d21385b68909f,,,,,,,,,,,424.4354,425.3727,,,425.8837,426.1459,,119,119,,,,,,,,,,,,,,,,bars/037.png,bars/mask007.png,,,,,,,,,,,,3,2,,,,,,,10,6,10,6,,,,,,,,,,,425.3728,425.8837,426.1459,432.4966,space,6.2762,,432.4967,31,14,433.44,433.4401,435.9331,space,2.3957,,0,5,5,5,1,150,105,,,,,,,,
,,656f94ed904a54c0c02bdc2a,65af547f72f417c9b9fa8802,2024-01-23_06h54.59.061,bars,2023.2.3,Win32,15.55209953,657b66ea316d21385b68909f,,,,,,,,,,,435.9334,436.9343,,,437.3776,437.6446,,26,26,,,,,,,,,,,,,,,,bars/022.png,bars/mask005.png,,,,,,,,,,,,5,2,,,,,,,8,4,9,6,,,,,,,,,,,436.9343,437.3776,437.6447,444.5755,space,6.8417,,444.5755,69,6,445.5685,445.5686,447.1047,space,1.4469,,0,6,6,6,1,95,20,,,,,,,,
,,656f94ed904a54c0c02bdc2a,65af547f72f417c9b9fa8802,2024-01-23_06h54.59.061,bars,2023.2.3,Win32,15.55209953,657b66ea316d21385b68909f,,,,,,,,,,,447.105,448.1038,,,448.5415,448.7284,,136,136,,,,,,,,,,,,,,,,bars/020.png,bars/mask002.png,,,,,,,,,,,,3,1,,,,,,,10,2,10,2,,,,,,,,,,,448.1039,448.5415,448.7285,455.965,space,7.1564,,455.9651,21,34,456.9081,456.9081,459.4973,space,2.504,,0,7,7,7,1,115,170,,,,,,,,
,,656f94ed904a54c0c02bdc2a,65af547f72f417c9b9fa8802,2024-01-23_06h54.59.061,bars,2023.2.3,Win32,15.55209953,657b66ea316d21385b68909f,,,,,,,,,,,459.4976,460.4961,,,460.9874,461.2403,,128,128,,,,,,,,,,,,,,,,bars/043.png,bars/mask006.png,,,,,,,,,,,,4,2,,,,,,,10,4,10,4,,,,,,,,,,,460.4961,460.9874,461.2404,463.9078,space,2.5849,,463.9079,82,2,464.9011,464.9011,466.9344,space,1.944,,0,8,8,8,1,30,130,,,,,,,,
,,656f94ed904a54c0c02bdc2a,65af547f72f417c9b9fa8802,2024-01-23_06h54.59.061,bars,2023.2.3,Win32,15.55209953,657b66ea316d21385b68909f,,,,,,,,,,,466.9347,467.8818,,,468.3247,468.5813,,104,104,,,,,,,,,,,,,,,,bars/039.png,bars/mask001.png,,,,,,,,,,,,5,2,,,,,,,8,6,6,5,,,,,,,,,,,467.8818,468.3247,468.5813,470.8929,space,2.231,,470.8929,71,1,471.8872,471.8872,474.5858,space,2.6188,,0,9,9,9,1,175,105,,,,,,,,
,,656f94ed904a54c0c02bdc2a,65af547f72f417c9b9fa8802,2024-01-23_06h54.59.061,bars,2023.2.3,Win32,15.55209953,657b66ea316d21385b68909f,,,,,,,,,,,474.5862,475.572,,,476.0697,476.3122,,100,100,,,,,,,,,,,,,,,,bars/022.png,bars/mask004.png,,,,,,,,,,,,5,1,,,,,,,6,4,6,5,,,,,,,,,,,475.572,476.0697,476.3122,481.7166,space,5.3196,,481.7166,5,80,482.6897,482.6897,485.2549,space,2.483,,0,10,10,10,1,95,20,,,,,,,,
,,656f94ed904a54c0c02bdc2a,65af547f72f417c9b9fa8802,2024-01-23_06h54.59.061,bars,2023.2.3,Win32,15.55209953,657b66ea316d21385b68909f,,,,,,,,,,,485.2552,486.2321,,,486.7503,486.9429,,170,-10,,,,,,,,,,,,,,,,bars/007.png,bars/mask006.png,,,,,,,,,,,,3,1,,,,,,,4,2,3,2,,,,,,,,,,,486.2321,486.7503,486.943,494.6242,space,7.6009,,494.6242,5,65,495.5825,495.5825,497.6072,space,1.942,,0,11,11,11,1,175,55,,,,,,,,
,,656f94ed904a54c0c02bdc2a,65af547f72f417c9b9fa8802,2024-01-23_06h54.59.061,bars,2023.2.3,Win32,15.55209953,657b66ea316d21385b68909f,,,,,,,,,,,497.6075,498.5985,,,499.0576,499.3081,,24,204,,,,,,,,,,,,,,,,bars/043.png,bars/mask005.png,,,,,,,,,,,,2,1,,,,,,,2,0,3,2,,,,,,,,,,,498.5985,499.0575,499.3082,510.2906,space,10.9037,,510.2906,6,74,511.2611,511.2611,512.9562,space,1.6045,,0,12,12,12,1,30,130,,,,,,,,
,,656f94ed904a54c0c02bdc2a,65af547f72f417c9b9fa8802,2024-01-23_06h54.59.061,bars,2023.2.3,Win32,15.55209953,657b66ea316d21385b68909f,,,,,,,,,,,512.9565,513.9686,,,514.4876,514.7336,,166,166,,,,,,,,,,,,,,,,bars/039.png,bars/mask007.png,,,,,,,,,,,,3,1,,,,,,,4,0,4,0,,,,,,,,,,,513.9686,514.4876,514.7336,520.1651,space,5.3402,,520.1651,9,61,521.1411,521.1411,522.3687,space,1.1497,,0,13,13,13,1,175,105,,,,,,,,
,,656f94ed904a54c0c02bdc2a,65af547f72f417c9b9fa8802,2024-01-23_06h54.59.061,bars,2023.2.3,Win32,15.55209953,657b66ea316d21385b68909f,,,,,,,,,,,522.369,523.3622,,,523.8624,524.1103,,111,111,,,,,,,,,,,,,,,,bars/004.png,bars/mask009.png,,,,,,,,,,,,1,2,,,,,,,6,2,5,2,,,,,,,,,,,523.3623,523.8624,524.1104,527.85,space,3.648,,527.85,86,14,528.8271,528.8272,532.4104,space,3.4918,,0,14,14,14,1,25,125,,,,,,,,
,,656f94ed904a54c0c02bdc2a,65af547f72f417c9b9fa8802,2024-01-23_06h54.59.061,bars,2023.2.3,Win32,15.55209953,657b66ea316d21385b68909f,,,,,,,,,,,532.4157,533.4221,,,533.9332,534.1825,,123,123,,,,,,,,,,,,,,,,bars/049.png,bars/mask004.png,,,,,,,,,,,,4,2,,,,,,,8,4,10,6,,,,,,,,,,,533.4222,533.9332,534.1826,540.169,space,5.9069,,540.1691,37,8,541.1699,541.1699,542.3758,space,1.1203,,0,15,15,15,1,160,115,,,,,,,,
,,656f94ed904a54c0c02bdc2a,65af547f72f417c9b9fa8802,2024-01-23_06h54.59.061,bars,2023.2.3,Win32,15.55209953,657b66ea316d21385b68909f,,,,,,,,,,,542.376,543.3725,,,543.8837,544.1427,,57,57,,,,,,,,,,,,,,,,bars/034.png,bars/mask002.png,,,,,,,,,,,,5,2,,,,,,,10,6,10,7,,,,,,,,,,,543.3725,543.8837,544.1428,550.5393,space,6.3165,,550.5394,68,8,551.5416,551.5417,553.0048,space,1.3865,,0,16,16,16,1,125,65,,,,,,,,
,,656f94ed904a54c0c02bdc2a,65af547f72f417c9b9fa8802,2024-01-23_06h54.59.061,bars,2023.2.3,Win32,15.55209953,657b66ea316d21385b68909f,,,,,,,,,,,553.0051,553.9813,,,554.4909,554.7381,,100,100,,,,,,,,,,,,,,,,bars/011.png,bars/mask000.png,,,,,,,,,,,,3,2,,,,,,,8,4,8,5,,,,,,,,,,,553.9814,554.4908,554.7382,559.1045,space,4.2812,,559.1046,60,15,560.0859,560.086,562.6709,space,2.5049,,0,17,17,17,1,160,85,,,,,,,,
,,656f94ed904a54c0c02bdc2a,65af547f72f417c9b9fa8802,2024-01-23_06h54.59.061,bars,2023.2.3,Win32,15.55209953,657b66ea316d21385b68909f,,,,,,,,,,,562.6763,563.6588,,,564.1595,564.4143,,26,206,,,,,,,,,,,,,,,,bars/012.png,bars/mask004.png,,,,,,,,,,,,4,2,,,,,,,6,6,5,6,,,,,,,,,,,563.6588,564.1595,564.4143,571.6388,space,7.1459,,571.6388,64,11,572.6138,572.6138,574.1313,space,1.4319,,0,18,18,18,1,90,15,,,,,,,,
,,656f94ed904a54c0c02bdc2a,65af547f72f417c9b9fa8802,2024-01-23_06h54.59.061,bars,2023.2.3,Win32,15.55209953,657b66ea316d21385b68909f,,,,,,,,,,,574.1316,575.124,,,575.5673,575.8318,,37,217,,,,,,,,,,,,,,,,bars/007.png,bars/mask005.png,,,,,,,,,,,,3,2,,,,,,,8,8,8,8,,,,,,,,,,,575.1241,575.5673,575.8318,588.5151,space,12.6086,,588.5152,42,18,589.4868,589.4868,590.888,space,1.3166,,0,19,19,19,1,175,55,,,,,,,,
,,656f94ed904a54c0c02bdc2a,65af547f72f417c9b9fa8802,2024-01-23_06h54.59.061,bars,2023.2.3,Win32,15.55209953,657b66ea316d21385b68909f,,,,,,,,,,,590.8883,591.8366,,,592.3514,592.6196,,112,112,,,,,,,,,,,,,,,,bars/037.png,bars/mask004.png,,,,,,,,,,,,4,2,,,,,,,10,6,10,5,,,,,,,,,,,591.8366,592.3513,592.6196,598.4666,space,5.7722,,598.4666,38,7,599.4327,599.4327,601.0098,space,1.4972,,0,20,20,20,1,150,105,,,,,,,,
,,656f94ed904a54c0c02bdc2a,65af547f72f417c9b9fa8802,2024-01-23_06h54.59.061,bars,2023.2.3,Win32,15.55209953,657b66ea316d21385b68909f,,,,,,,,,,,601.01,601.9747,,,602.481,602.7283,,59,59,,,,,,,,,,,,,,,,bars/030.png,bars/mask003.png,,,,,,,,,,,,6,2,,,,,,,8,8,8,8,,,,,,,,,,,601.9747,602.4809,602.7284,609.7161,space,6.9044,,609.7161,81,6,610.7262,610.7262,612.2069,space,1.3885,,0,21,21,21,1,140,65,,,,,,,,
,,656f94ed904a54c0c02bdc2a,65af547f72f417c9b9fa8802,2024-01-23_06h54.59.061,bars,2023.2.3,Win32,15.55209953,657b66ea316d21385b68909f,,,,,,,,,,,612.2071,613.2206,,,613.7058,613.9617,,61,61,,,,,,,,,,,,,,,,bars/010.png,bars/mask000.png,,,,,,,,,,,,8,2,,,,,,,6,10,4,10,,,,,,,,,,,613.2206,613.7058,613.9617,616.5918,space,2.5495,,616.5919,76,6,617.5786,617.5786,618.7777,space,1.1158,,0,22,22,22,1,165,55,,,,,,,,
,,656f94ed904a54c0c02bdc2a,65af547f72f417c9b9fa8802,2024-01-23_06h54.59.061,bars,2023.2.3,Win32,15.55209953,657b66ea316d21385b68909f,,,,,,,,,,,618.7781,619.7444,,,620.245,620.5222,,168,-12,,,,,,,,,,,,,,,,bars/033.png,bars/mask008.png,,,,,,,,,,,,5,2,,,,,,,4,10,4,9,,,,,,,,,,,619.7444,620.245,620.5222,630.2342,space,9.6323,,630.2343,37,13,631.246,631.2462,632.5134,space,1.1721,,0,23,23,23,1,25,155,,,,,,,,
,,656f94ed904a54c0c02bdc2a,65af547f72f417c9b9fa8802,2024-01-23_06h54.59.061,bars,2023.2.3,Win32,15.55209953,657b66ea316d21385b68909f,,,,,,,,,,,632.5137,633.4984,,,633.9873,634.2325,,80,80,,,,,,,,,,,,,,,,bars/046.png,bars/mask002.png,,,,,,,,,,,,7,2,,,,,,,6,8,7,8,,,,,,,,,,,633.4984,633.9872,634.2325,643.863,space,9.5446,,643.863,75,5,644.871,644.871,646.4148,space,1.4548,,0,24,24,24,1,155,85,,,,,,,,
,,656f94ed904a54c0c02bdc2a,65af547f72f417c9b9fa8802,2024-01-23_06h54.59.061,bars,2023.2.3,Win32,15.55209953,657b66ea316d21385b68909f,,,,,,,,,,,646.4152,647.4024,,,647.9163,648.1669,,163,163,,,,,,,,,,,,,,,,bars/045.png,bars/mask000.png,,,,,,,,,,,,0,2,,,,,,,8,6,9,4,,,,,,,,,,,647.4025,647.9162,648.1669,654.9834,space,6.7403,,654.9834,63,27,655.9292,655.9292,660.4645,space,4.4586,,0,25,25,25,1,100,10,,,,,,,,
,,656f94ed904a54c0c02bdc2a,65af547f72f417c9b9fa8802,2024-01-23_06h54.59.061,bars,2023.2.3,Win32,15.55209953,657b66ea316d21385b68909f,,,,,,,,,,,660.4695,661.4636,,,661.9061,662.1624,,99,99,,,,,,,,,,,,,,,,bars/022.png,bars/mask008.png,,,,,,,,,,,,9,1,,,,,,,10,4,10,5,,,,,,,,,,,661.4637,661.9061,662.1624,671.6601,space,9.4238,,671.6601,4,79,672.6856,672.6856,674.1722,space,1.401,,0,26,26,26,1,95,20,,,,,,,,
,,656f94ed904a54c0c02bdc2a,65af547f72f417c9b9fa8802,2024-01-23_06h54.59.061,bars,2023.2.3,Win32,15.55209953,657b66ea316d21385b68909f,,,,,,,,,,,674.1724,675.1904,,,675.6923,675.9535,,113,113,,,,,,,,,,,,,,,,bars/031.png,bars/mask006.png,,,,,,,,,,,,7,1,,,,,,,8,6,9,5,,,,,,,,,,,675.1905,675.6922,675.9537,684.0172,space,7.9897,,684.0172,7,78,685.0238,685.024,686.7421,space,1.6189,,0,27,27,27,1,120,35,,,,,,,,
,,656f94ed904a54c0c02bdc2a,65af547f72f417c9b9fa8802,2024-01-23_06h54.59.061,bars,2023.2.3,Win32,15.55209953,657b66ea316d21385b68909f,,,,,,,,,,,686.7424,687.7449,,,688.1927,688.3715,,45,225,,,,,,,,,,,,,,,,bars/038.png,bars/mask009.png,,,,,,,,,,,,2,2,,,,,,,10,8,10,10,,,,,,,,,,,687.7449,688.1926,688.3715,694.3924,space,5.9327,,694.3924,60,25,695.3907,695.3908,698.4214,space,2.9537,,0,28,28,28,1,165,70,,,,,,,,
,,656f94ed904a54c0c02bdc2a,65af547f72f417c9b9fa8802,2024-01-23_06h54.59.061,bars,2023.2.3,Win32,15.55209953,657b66ea316d21385b68909f,,,,,,,,,,,698.4217,699.3997,,,699.8438,700.0865,,125,125,,,,,,,,,,,,,,,,bars/036.png,bars/mask003.png,,,,,,,,,,,,3,1,,,,,,,8,6,10,6,,,,,,,,,,,699.3997,699.8437,700.0865,705.6547,space,5.4758,,705.6547,20,75,706.6491,706.6491,708.08,space,1.3494,,0,29,29,29,1,145,20,,,,,,,,
,,656f94ed904a54c0c02bdc2a,65af547f72f417c9b9fa8802,2024-01-23_06h54.59.061,bars,2023.2.3,Win32,15.55209953,657b66ea316d21385b68909f,,,,,,,,,,,708.0803,709.0395,,,709.4708,709.7169,,123,123,,,,,,,,,,,,,,,,bars/008.png,bars/mask001.png,,,,,,,,,,,,4,1,,,,,,,6,8,7,9,,,,,,,,,,,709.0396,709.4708,709.717,712.4197,space,2.6285,,712.4197,13,57,713.3687,713.3688,715.0683,space,1.6077,,0,30,30,30,1,110,0,,,,,,,,
,,656f94ed904a54c0c02bdc2a,65af547f72f417c9b9fa8802,2024-01-23_06h54.59.061,bars,2023.2.3,Win32,15.55209953,657b66ea316d21385b68909f,,,,,,,,,,,715.0685,716.0341,,,716.5588,716.8186,,87,87,,,,,,,,,,,,,,,,bars/012.png,bars/mask001.png,,,,,,,,,,,,3,1,,,,,,,4,6,3,6,,,,,,,,,,,716.0341,716.5588,716.8186,723.307,space,6.4138,,723.307,3,72,724.289,724.2891,727.7267,space,3.3481,,0,31,31,31,1,90,15,,,,,,,,
,,656f94ed904a54c0c02bdc2a,65af547f72f417c9b9fa8802,2024-01-23_06h54.59.061,bars,2023.2.3,Win32,15.55209953,657b66ea316d21385b68909f,,,,,,,,,,,727.7322,728.7115,,,729.1561,729.3421,,110,110,,,,,,,,,,,,,,,,bars/043.png,bars/mask001.png,,,,,,,,,,,,1,2,,,,,,,6,4,5,3,,,,,,,,,,,728.7116,729.1561,729.3421,731.5338,space,2.1008,,731.5338,80,20,732.4951,732.4951,733.7815,space,1.1849,,0,32,32,32,1,30,130,,,,,,,,
,,656f94ed904a54c0c02bdc2a,65af547f72f417c9b9fa8802,2024-01-23_06h54.59.061,bars,2023.2.3,Win32,15.55209953,657b66ea316d21385b68909f,,,,,,,,,,,733.7818,734.7475,,,735.2431,735.502,,11,191,,,,,,,,,,,,,,,,bars/016.png,bars/mask003.png,,,,,,,,,,,,0,2,,,,,,,8,2,10,2,,,,,,,,,,,734.7476,735.2431,735.502,740.9934,space,5.4118,,740.9934,29,26,741.9604,741.9605,744.7338,space,2.6857,,0,33,33,33,1,40,165,,,,,,,,
,,656f94ed904a54c0c02bdc2a,65af547f72f417c9b9fa8802,2024-01-23_06h54.59.061,bars,2023.2.3,Win32,15.55209953,657b66ea316d21385b68909f,,,,,,,,,,,744.7341,745.7156,,,746.1511,746.4195,,158,-22,,,,,,,,,,,,,,,,bars/004.png,bars/mask004.png,,,,,,,,,,,,0,2,,,,,,,6,0,6,0,,,,,,,,,,,745.7157,746.151,746.4196,753.3651,space,6.861,,753.3652,47,33,754.3406,754.3406,756.9387,space,2.5123,,0,34,34,34,1,25,125,,,,,,,,
,,656f94ed904a54c0c02bdc2a,65af547f72f417c9b9fa8802,2024-01-23_06h54.59.061,bars,2023.2.3,Win32,15.55209953,657b66ea316d21385b68909f,,,,,,,,,,,756.939,757.9138,,,758.4278,758.6777,,102,102,,,,,,,,,,,,,,,,bars/006.png,bars/mask000.png,,,,,,,,,,,,0,2,,,,,,,4,0,1,0,,,,,,,,,,,757.9138,758.4278,758.6777,761.7471,space,2.9779,,761.7471,67,2,762.6798,762.6798,765.1808,space,2.4063,,0,35,35,35,1,35,100,,,,,,,,
,,656f94ed904a54c0c02bdc2a,65af547f72f417c9b9fa8802,2024-01-23_06h54.59.061,bars,2023.2.3,Win32,15.55209953,657b66ea316d21385b68909f,,,,,,,,,,,765.1811,766.1889,,,766.6895,766.9497,,114,114,,,,,,,,,,,,,,,,bars/031.png,bars/mask001.png,,,,,,,,,,,,5,1,,,,,,,6,2,6,3,,,,,,,,,,,766.1889,766.6895,766.9497,776.1906,space,9.1516,,776.1906,6,79,777.1908,777.1908,778.6677,space,1.3973,,0,36,36,36,1,120,35,,,,,,,,
,,656f94ed904a54c0c02bdc2a,65af547f72f417c9b9fa8802,2024-01-23_06h54.59.061,bars,2023.2.3,Win32,15.55209953,657b66ea316d21385b68909f,,,,,,,,,,,778.668,779.6407,,,780.1593,780.4068,,97,97,,,,,,,,,,,,,,,,bars/045.png,bars/mask001.png,,,,,,,,,,,,5,1,,,,,,,4,0,5,1,,,,,,,,,,,779.6407,780.1593,780.4069,787.9032,space,7.409,,787.9032,3,87,788.8734,788.8734,790.8577,space,1.8937,,0,37,37,37,1,100,10,,,,,,,,
,,656f94ed904a54c0c02bdc2a,65af547f72f417c9b9fa8802,2024-01-23_06h54.59.061,bars,2023.2.3,Win32,15.55209953,657b66ea316d21385b68909f,,,,,,,,,,,790.858,791.8314,,,792.3322,792.5787,,173,173,,,,,,,,,,,,,,,,bars/048.png,bars/mask001.png,,,,,,,,,,,,0,2,,,,,,,2,0,1,0,,,,,,,,,,,791.8314,792.3321,792.5787,796.0774,space,3.41,,796.0774,57,2,797.0841,797.0842,799.3245,space,2.1562,,0,38,38,38,1,50,175,,,,,,,,
,,656f94ed904a54c0c02bdc2a,65af547f72f417c9b9fa8802,2024-01-23_06h54.59.061,bars,2023.2.3,Win32,15.55209953,657b66ea316d21385b68909f,,,,,,,,,,,799.3247,800.3131,,,800.8066,801.0548,,121,121,,,,,,,,,,,,,,,,bars/017.png,bars/mask004.png,,,,,,,,,,,,0,1,,,,,,,0,2,0,2,,,,,,,,,,,800.3131,800.8066,801.0548,802.5106,space,1.3794,,802.5106,24,76,803.5098,803.5099,805.1737,space,1.5723,,0,39,39,39,1,145,45,,,,,,,,
,,656f94ed904a54c0c02bdc2a,65af547f72f417c9b9fa8802,2024-01-23_06h54.59.061,bars,2023.2.3,Win32,15.55209953,657b66ea316d21385b68909f,,,,,,,,,,,805.174,806.1356,,,806.6371,806.8972,,94,94,,,,,,,,,,,,,,,,bars/045.png,bars/mask002.png,,,,,,,,,,,,1,1,,,,,,,0,0,1,2,,,,,,,,,,,806.1358,806.637,806.8972,814.1994,space,7.224,,814.1994,6,84,815.1604,815.1604,817.1976,space,1.9452,,0,40,40,40,1,100,10,,,,,,,,
,,656f94ed904a54c0c02bdc2a,65af547f72f417c9b9fa8802,2024-01-23_06h54.59.061,bars,2023.2.3,Win32,15.55209953,657b66ea316d21385b68909f,,,,,,,,,,,817.1979,818.1889,,,818.6833,818.9367,,10,190,,,,,,,,,,,,,,,,bars/023.png,bars/mask009.png,,,,,,,,,,,,0,1,,,,,,,0,0,0,0,,,,,,,,,,,818.1889,818.6832,818.9368,820.8599,space,1.8385,,820.8599,10,75,821.8586,821.8586,823.2638,space,1.3276,,0,41,41,41,1,20,115,,,,,,,,
,,656f94ed904a54c0c02bdc2a,65af547f72f417c9b9fa8802,2024-01-23_06h54.59.061,bars,2023.2.3,Win32,15.55209953,657b66ea316d21385b68909f,,,,,,,,,,,823.2641,824.2568,,,824.7062,824.9534,,5,5,,,,,,,,,,,,,,,,bars/014.png,bars/mask005.png,,,,,,,,,,,,1,2,,,,,,,2,0,1,1,,,,,,,,,,,824.2568,824.7062,824.9535,832.8899,space,7.8563,,832.89,75,5,833.9044,833.9045,835.341,space,1.34,,0,42,42,42,1,80,0,,,,,,,,
,,656f94ed904a54c0c02bdc2a,65af547f72f417c9b9fa8802,2024-01-23_06h54.59.061,bars,2023.2.3,Win32,15.55209953,657b66ea316d21385b68909f,,,,,,,,,,,835.3413,836.3592,,,836.8616,837.1119,,8,8,,,,,,,,,,,,,,,,bars/014.png,bars/mask003.png,,,,,,,,,,,,0,2,,,,,,,0,0,0,0,,,,,,,,,,,836.3592,836.8616,837.1119,845.5494,space,8.3552,,845.5494,72,8,846.5491,846.5491,847.7972,space,1.1641,,0,43,43,43,1,80,0,,,,,,,,
,,656f94ed904a54c0c02bdc2a,65af547f72f417c9b9fa8802,2024-01-23_06h54.59.061,bars,2023.2.3,Win32,15.55209953,657b66ea316d21385b68909f,,,,,,,,,,,847.7975,848.7813,,,849.2809,849.4687,,11,191,,,,,,,,,,,,,,,,bars/023.png,bars/mask006.png,,,,,,,,,,,,1,1,,,,,,,2,0,2,1,,,,,,,,,,,848.7813,849.2809,849.4688,851.9677,space,2.4157,,851.9677,9,76,852.9653,852.9653,854.319,space,1.2684,,0,44,44,44,1,20,115,,,,,,,,
,,656f94ed904a54c0c02bdc2a,65af547f72f417c9b9fa8802,2024-01-23_06h54.59.061,bars,2023.2.3,Win32,15.55209953,657b66ea316d21385b68909f,,,,,,,,,,,854.3193,855.2861,,,855.8099,856.0743,,10,10,,,,,,,,,,,,,,,,bars/007.png,bars/mask008.png,,,,,,,,,,,,2,1,,,,,,,4,2,4,2,,,,,,,,,,,855.2861,855.8099,856.0743,862.1009,space,5.9443,,862.1009,15,45,863.0437,863.0438,864.2768,space,1.1526,,0,45,45,45,1,175,55,,,,,,,,
,,656f94ed904a54c0c02bdc2a,65af547f72f417c9b9fa8802,2024-01-23_06h54.59.061,bars,2023.2.3,Win32,15.55209953,657b66ea316d21385b68909f,,,,,,,,,,,864.2771,865.2492,,,865.7262,865.9717,,150,-30,,,,,,,,,,,,,,,,bars/021.png,bars/mask002.png,,,,,,,,,,,,2,1,,,,,,,2,4,2,4,,,,,,,,,,,865.2492,865.7262,865.9717,870.1089,space,4.0571,,870.1089,5,80,871.0607,871.0607,872.3169,space,1.1723,,0,46,46,46,1,155,70,,,,,,,,
,,656f94ed904a54c0c02bdc2a,65af547f72f417c9b9fa8802,2024-01-23_06h54.59.061,bars,2023.2.3,Win32,15.55209953,657b66ea316d21385b68909f,,,,,,,,,,,872.3171,873.3254,,,873.8386,874.0857,,66,66,,,,,,,,,,,,,,,,bars/044.png,bars/mask008.png,,,,,,,,,,,,3,1,,,,,,,4,2,4,2,,,,,,,,,,,873.3254,873.8385,874.0858,876.0654,space,1.8947,,876.0654,9,89,877.0845,877.0845,879.2815,space,2.1148,,0,47,47,47,1,75,155,,,,,,,,
,,656f94ed904a54c0c02bdc2a,65af547f72f417c9b9fa8802,2024-01-23_06h54.59.061,bars,2023.2.3,Win32,15.55209953,657b66ea316d21385b68909f,,,,,,,,,,,879.2818,880.2655,,,880.7705,881.0371,,175,175,,,,,,,,,,,,,,,,bars/023.png,bars/mask008.png,,,,,,,,,,,,1,1,,,,,,,6,0,5,0,,,,,,,,,,,880.2655,880.7705,881.0372,883.792,space,2.6785,,883.7921,25,60,884.801,884.8011,890.1689,space,5.2776,,0,48,48,48,1,20,115,,,,,,,,
,,656f94ed904a54c0c02bdc2a,65af547f72f417c9b9fa8802,2024-01-23_06h54.59.061,bars,2023.2.3,Win32,15.55209953,657b66ea316d21385b68909f,,,,,,,,,,,890.1742,891.1824,,,891.7144,891.9546,,50,230,,,,,,,,,,,,,,,,bars/046.png,bars/mask007.png,,,,,,,,,,,,0,2,,,,,,,4,0,6,0,,,,,,,,,,,891.1825,891.7144,891.9546,900.2324,space,8.1986,,900.2325,75,35,901.22,901.22,906.1902,space,4.8909,,0,49,49,49,1,155,85,,,,,,,,
,,656f94ed904a54c0c02bdc2a,65af547f72f417c9b9fa8802,2024-01-23_06h54.59.061,bars,2023.2.3,Win32,15.55209953,657b66ea316d21385b68909f,,,,,,,,,,,,,,,,,,,,,,,,,,,,,,,,,,,,,,,,,,,,,,,,,,,,,,,,,,,,,,,,,,,,,,,,,,,,,,,,,,,,,,,,,,,,,906.1906,966.1783,0,0,0,4,1,sequence_tables/blk027.csv
,,656f94ed904a54c0c02bdc2a,65af547f72f417c9b9fa8802,2024-01-23_06h54.59.061,bars,2023.2.3,Win32,15.55209953,657b66ea316d21385b68909f,,,,,,,,,,,1004.3276,1005.2863,,,1005.7841,1006.0434,,99,99,,,,,,,,,,,,,,,,bars/038.png,bars/mask001.png,,,,,,,,,,,,0,2,,,,,,,3,6,4,7,,,,,,966.1841,1004.3198,space,38.0491,,1005.2863,1005.7841,1006.0434,1011.2657,space,5.1395,,1011.2657,66,29,1012.2655,1012.2655,1012.2706,,,,0,0,0,0,1,165,70,,,,,,,,
,,656f94ed904a54c0c02bdc2a,65af547f72f417c9b9fa8802,2024-01-23_06h54.59.061,bars,2023.2.3,Win32,15.55209953,657b66ea316d21385b68909f,,,,,,,,,,,1012.2707,1013.2487,,,1013.7555,1014.0072,,66,66,,,,,,,,,,,,,,,,bars/042.png,bars/mask005.png,,,,,,,,,,,,5,2,,,,,,,5,8,3,7,,,,,,,,,,,1013.2487,1013.7554,1014.0073,1015.4503,space,1.3626,,1015.4503,79,9,1016.4317,1016.4317,1016.4322,,,,0,1,1,1,1,145,75,,,,,,,,
,,656f94ed904a54c0c02bdc2a,65af547f72f417c9b9fa8802,2024-01-23_06h54.59.061,bars,2023.2.3,Win32,15.55209953,657b66ea316d21385b68909f,,,,,,,,,,,1016.4323,1017.4249,,,1017.8584,1018.112,,144,144,,,,,,,,,,,,,,,,bars/014.png,bars/mask007.png,,,,,,,,,,,,0,2,,,,,,,7,10,8,10,,,,,,,,,,,1017.4249,1017.8584,1018.112,1026.9683,space,8.7668,,1026.9683,64,36,1027.9529,1027.9529,1027.9583,,,,0,2,2,2,1,80,0,,,,,,,,
,,656f94ed904a54c0c02bdc2a,65af547f72f417c9b9fa8802,2024-01-23_06h54.59.061,bars,2023.2.3,Win32,15.55209953,657b66ea316d21385b68909f,,,,,,,,,,,1027.9585,1028.9467,,,1029.4023,1029.5834,,136,136,,,,,,,,,,,,,,,,bars/049.png,bars/mask003.png,,,,,,,,,,,,3,2,,,,,,,5,10,5,10,,,,,,,,,,,1028.9468,1029.4022,1029.5834,1030.3937,space,0.7395,,1030.3937,24,21,1031.3938,1031.3938,1031.3946,,,,0,3,3,3,1,160,115,,,,,,,,
,,656f94ed904a54c0c02bdc2a,65af547f72f417c9b9fa8802,2024-01-23_06h54.59.061,bars,2023.2.3,Win32,15.55209953,657b66ea316d21385b68909f,,,,,,,,,,,1031.3947,1032.3547,,,1032.858,1033.1158,,4,4,,,,,,,,,,,,,,,,bars/008.png,bars/mask008.png,,,,,,,,,,,,7,2,,,,,,,3,10,2,8,,,,,,,,,,,1032.3547,1032.858,1033.1158,1040.6986,space,7.5095,,1040.6987,74,4,1041.6979,1041.6979,1041.7036,,,,0,4,4,4,1,110,0,,,,,,,,
,,656f94ed904a54c0c02bdc2a,65af547f72f417c9b9fa8802,2024-01-23_06h54.59.061,bars,2023.2.3,Win32,15.55209953,657b66ea316d21385b68909f,,,,,,,,,,,1041.7036,1042.7172,,,1043.2227,1043.4738,,37,217,,,,,,,,,,,,,,,,bars/007.png,bars/mask004.png,,,,,,,,,,,,4,2,,,,,,,1,10,1,9,,,,,,,,,,,1042.7172,1043.2227,1043.4738,1050.5693,space,7.0239,,1050.5693,42,18,1051.5243,1051.5243,1051.5248,,,,0,5,5,5,1,175,55,,,,,,,,
,,656f94ed904a54c0c02bdc2a,65af547f72f417c9b9fa8802,2024-01-23_06h54.59.061,bars,2023.2.3,Win32,15.55209953,657b66ea316d21385b68909f,,,,,,,,,,,1051.525,1052.5287,,,1052.994,1053.2537,,145,-35,,,,,,,,,,,,,,,,bars/044.png,bars/mask000.png,,,,,,,,,,,,7,2,,,,,,,3,10,1,10,,,,,,,,,,,1052.5287,1052.994,1053.2537,1061.8396,space,8.512,,1061.8397,70,10,1062.7788,1062.7789,1062.7841,,,,0,6,6,6,1,75,155,,,,,,,,
,,656f94ed904a54c0c02bdc2a,65af547f72f417c9b9fa8802,2024-01-23_06h54.59.061,bars,2023.2.3,Win32,15.55209953,657b66ea316d21385b68909f,,,,,,,,,,,1062.7842,1063.7651,,,1064.2063,1064.4624,,85,85,,,,,,,,,,,,,,,,bars/018.png,bars/mask007.png,,,,,,,,,,,,8,2,,,,,,,5,10,5,10,,,,,,,,,,,1063.7651,1064.2062,1064.4624,1068.319,space,3.7815,,1068.319,65,5,1069.2934,1069.2934,1069.2939,,,,0,7,7,7,1,150,90,,,,,,,,
,,656f94ed904a54c0c02bdc2a,65af547f72f417c9b9fa8802,2024-01-23_06h54.59.061,bars,2023.2.3,Win32,15.55209953,657b66ea316d21385b68909f,,,,,,,,,,,1069.294,1070.3032,,,1070.7985,1071.0515,,73,73,,,,,,,,,,,,,,,,bars/038.png,bars/mask000.png,,,,,,,,,,,,8,2,,,,,,,7,8,7,9,,,,,,,,,,,1070.3032,1070.7985,1071.0515,1073.1799,space,2.0554,,1073.1799,88,3,1074.1723,1074.1723,1074.1728,,,,0,8,8,8,1,165,70,,,,,,,,
,,656f94ed904a54c0c02bdc2a,65af547f72f417c9b9fa8802,2024-01-23_06h54.59.061,bars,2023.2.3,Win32,15.55209953,657b66ea316d21385b68909f,,,,,,,,,,,1074.1729,1075.1653,,,1075.6663,1075.9087,,103,103,,,,,,,,,,,,,,,,bars/023.png,bars/mask008.png,,,,,,,,,,,,3,2,,,,,,,5,6,7,5,,,,,,,,,,,1075.1653,1075.6663,1075.9088,1077.907,space,1.9207,,1077.907,83,12,1078.8969,1078.897,1078.8975,,,,0,9,9,9,1,20,115,,,,,,,,
,,656f94ed904a54c0c02bdc2a,65af547f72f417c9b9fa8802,2024-01-23_06h54.59.061,bars,2023.2.3,Win32,15.55209953,657b66ea316d21385b68909f,,,,,,,,,,,1078.8977,1079.8906,,,1080.3261,1080.5805,,166,166,,,,,,,,,,,,,,,,bars/020.png,bars/mask004.png,,,,,,,,,,,,9,2,,,,,,,7,8,7,10,,,,,,,,,,,1079.8906,1080.326,1080.5806,1082.8512,space,2.1832,,1082.8513,51,4,1083.8255,1083.8255,1083.826,,,,0,10,10,10,1,115,170,,,,,,,,
,,656f94ed904a54c0c02bdc2a,65af547f72f417c9b9fa8802,2024-01-23_06h54.59.061,bars,2023.2.3,Win32,15.55209953,657b66ea316d21385b68909f,,,,,,,,,,,1083.8261,1084.7979,,,1085.2359,1085.4778,,126,126,,,,,,,,,,,,,,,,bars/023.png,bars/mask000.png,,,,,,,,,,,,6,2,,,,,,,9,10,8,9,,,,,,,,,,,1084.798,1085.2359,1085.4779,1098.8495,space,13.298,,1098.8495,74,11,1099.8214,1099.8215,1099.8273,,,,0,11,11,11,1,20,115,,,,,,,,
,,656f94ed904a54c0c02bdc2a,65af547f72f417c9b9fa8802,2024-01-23_06h54.59.061,bars,2023.2.3,Win32,15.55209953,657b66ea316d21385b68909f,,,,,,,,,,,1099.8275,1100.812,,,1101.2616,1101.5312,,157,-23,,,,,,,,,,,,,,,,bars/043.png,bars/mask008.png,,,,,,,,,,,,1,2,,,,,,,10,10,9,10,,,,,,,,,,,1100.812,1101.2616,1101.5312,1108.6009,space,6.9963,,1108.601,53,27,1109.5717,1109.5717,1109.5767,,,,0,12,12,12,1,30,130,,,,,,,,
,,656f94ed904a54c0c02bdc2a,65af547f72f417c9b9fa8802,2024-01-23_06h54.59.061,bars,2023.2.3,Win32,15.55209953,657b66ea316d21385b68909f,,,,,,,,,,,1109.5768,1110.5996,,,1111.088,1111.3327,,103,103,,,,,,,,,,,,,,,,bars/039.png,bars/mask005.png,,,,,,,,,,,,7,2,,,,,,,8,8,8,8,,,,,,,,,,,1110.5997,1111.088,1111.3327,1116.763,space,5.3526,,1116.763,72,2,1117.7674,1117.7674,1117.7681,,,,0,13,13,13,1,175,105,,,,,,,,
,,656f94ed904a54c0c02bdc2a,65af547f72f417c9b9fa8802,2024-01-23_06h54.59.061,bars,2023.2.3,Win32,15.55209953,657b66ea316d21385b68909f,,,,,,,,,,,1117.7682,1118.7742,,,1119.2135,1119.4613,,163,-17,,,,,,,,,,,,,,,,bars/004.png,bars/mask006.png,,,,,,,,,,,,0,2,,,,,,,10,10,10,10,,,,,,,,,,,1118.7742,1119.2135,1119.4613,1127.637,space,8.0965,,1127.637,42,38,1128.5831,1128.5832,1128.5882,,,,0,14,14,14,1,25,125,,,,,,,,
,,656f94ed904a54c0c02bdc2a,65af547f72f417c9b9fa8802,2024-01-23_06h54.59.061,bars,2023.2.3,Win32,15.55209953,657b66ea316d21385b68909f,,,,,,,,,,,1128.5883,1129.5648,,,1130.0512,1130.2307,,0,180,,,,,,,,,,,,,,,,bars/045.png,bars/mask001.png,,,,,,,,,,,,7,2,,,,,,,8,10,6,10,,,,,,,,,,,1129.5649,1130.0512,1130.2307,1137.4133,space,7.1099,,1137.4133,80,10,1138.4206,1138.4206,1138.4211,,,,0,15,15,15,1,100,10,,,,,,,,
,,656f94ed904a54c0c02bdc2a,65af547f72f417c9b9fa8802,2024-01-23_06h54.59.061,bars,2023.2.3,Win32,15.55209953,657b66ea316d21385b68909f,,,,,,,,,,,1138.4212,1139.3908,,,1139.9165,1140.1562,,16,196,,,,,,,,,,,,,,,,bars/012.png,bars/mask009.png,,,,,,,,,,,,9,2,,,,,,,10,10,10,9,,,,,,,,,,,1139.3908,1139.9165,1140.1562,1143.2172,space,2.9748,,1143.2173,74,1,1144.1558,1144.1559,1144.1563,,,,0,16,16,16,1,90,15,,,,,,,,
,,656f94ed904a54c0c02bdc2a,65af547f72f417c9b9fa8802,2024-01-23_06h54.59.061,bars,2023.2.3,Win32,15.55209953,657b66ea316d21385b68909f,,,,,,,,,,,1144.1565,1145.1207,,,1145.5528,1145.7952,,66,66,,,,,,,,,,,,,,,,bars/042.png,bars/mask004.png,,,,,,,,,,,,7,2,,,,,,,10,10,10,10,,,,,,,,,,,1145.1208,1145.5528,1145.7952,1148.5165,space,2.6408,,1148.5165,79,9,1149.4927,1149.4928,1149.4982,,,,0,17,17,17,1,145,75,,,,,,,,
,,656f94ed904a54c0c02bdc2a,65af547f72f417c9b9fa8802,2024-01-23_06h54.59.061,bars,2023.2.3,Win32,15.55209953,657b66ea316d21385b68909f,,,,,,,,,,,1149.4983,1150.4928,,,1150.9439,1151.1289,,85,85,,,,,,,,,,,,,,,,bars/021.png,bars/mask000.png,,,,,,,,,,,,5,2,,,,,,,10,10,9,10,,,,,,,,,,,1150.4929,1150.9439,1151.1289,1153.4364,space,2.2261,,1153.4364,70,15,1154.4238,1154.4238,1154.4244,,,,0,18,18,18,1,155,70,,,,,,,,
,,656f94ed904a54c0c02bdc2a,65af547f72f417c9b9fa8802,2024-01-23_06h54.59.061,bars,2023.2.3,Win32,15.55209953,657b66ea316d21385b68909f,,,,,,,,,,,1154.4245,1155.4297,,,1155.9342,1156.1947,,4,4,,,,,,,,,,,,,,,,bars/014.png,bars/mask001.png,,,,,,,,,,,,7,2,,,,,,,8,8,10,8,,,,,,,,,,,1155.4297,1155.9342,1156.1948,1160.8827,space,4.6113,,1160.8827,76,4,1161.8577,1161.8577,1161.8582,,,,0,19,19,19,1,80,0,,,,,,,,
,,656f94ed904a54c0c02bdc2a,65af547f72f417c9b9fa8802,2024-01-23_06h54.59.061,bars,2023.2.3,Win32,15.55209953,657b66ea316d21385b68909f,,,,,,,,,,,1161.8583,1162.8699,,,1163.379,1163.6335,,170,-10,,,,,,,,,,,,,,,,bars/005.png,bars/mask003.png,,,,,,,,,,,,3,1,,,,,,,10,6,10,5,,,,,,,,,,,1162.8699,1163.379,1163.6335,1167.0168,space,3.2969,,1167.0168,20,30,1168.0138,1168.0138,1168.0149,,,,0,20,20,20,1,10,140,,,,,,,,
,,656f94ed904a54c0c02bdc2a,65af547f72f417c9b9fa8802,2024-01-23_06h54.59.061,bars,2023.2.3,Win32,15.55209953,657b66ea316d21385b68909f,,,,,,,,,,,1168.015,1168.9895,,,1169.504,1169.6846,,100,100,,,,,,,,,,,,,,,,bars/006.png,bars/mask008.png,,,,,,,,,,,,5,2,,,,,,,10,4,10,5,,,,,,,,,,,1168.9895,1169.5039,1169.6846,1176.1878,space,6.4154,,1176.1878,65,0,1177.183,1177.183,1177.184,,,,0,21,21,21,1,35,100,,,,,,,,
,,656f94ed904a54c0c02bdc2a,65af547f72f417c9b9fa8802,2024-01-23_06h54.59.061,bars,2023.2.3,Win32,15.55209953,657b66ea316d21385b68909f,,,,,,,,,,,1177.1841,1178.1811,,,1178.6925,1178.9486,,46,226,,,,,,,,,,,,,,,,bars/042.png,bars/mask003.png,,,,,,,,,,,,0,2,,,,,,,8,2,9,0,,,,,,,,,,,1178.1811,1178.6925,1178.9486,1185.4592,space,6.4299,,1185.4592,81,29,1186.4718,1186.4719,1186.4775,,,,0,22,22,22,1,145,75,,,,,,,,
,,656f94ed904a54c0c02bdc2a,65af547f72f417c9b9fa8802,2024-01-23_06h54.59.061,bars,2023.2.3,Win32,15.55209953,657b66ea316d21385b68909f,,,,,,,,,,,1186.4776,1187.4847,,,1187.9897,1188.236,,5,185,,,,,,,,,,,,,,,,bars/013.png,bars/mask005.png,,,,,,,,,,,,3,2,,,,,,,6,4,6,3,,,,,,,,,,,1187.4848,1187.9897,1188.236,1197.3025,space,8.9856,,1197.3025,70,5,1198.3197,1198.3197,1198.3202,,,,0,23,23,23,1,75,10,,,,,,,,
,,656f94ed904a54c0c02bdc2a,65af547f72f417c9b9fa8802,2024-01-23_06h54.59.061,bars,2023.2.3,Win32,15.55209953,657b66ea316d21385b68909f,,,,,,,,,,,1198.3203,1199.3194,,,1199.8275,1200.0736,,168,-12,,,,,,,,,,,,,,,,bars/044.png,bars/mask008.png,,,,,,,,,,,,3,2,,,,,,,8,6,8,6,,,,,,,,,,,1199.3194,1199.8275,1200.0736,1207.1375,space,6.9734,,1207.1375,87,13,1208.1308,1208.1308,1208.1314,,,,0,24,24,24,1,75,155,,,,,,,,
,,656f94ed904a54c0c02bdc2a,65af547f72f417c9b9fa8802,2024-01-23_06h54.59.061,bars,2023.2.3,Win32,15.55209953,657b66ea316d21385b68909f,,,,,,,,,,,1208.1315,1209.1459,,,1209.5889,1209.778,,90,90,,,,,,,,,,,,,,,,bars/039.png,bars/mask001.png,,,,,,,,,,,,3,2,,,,,,,10,4,10,5,,,,,,,,,,,1209.1459,1209.5888,1209.778,1214.0299,space,4.1646,,1214.03,85,15,1215.0162,1215.0162,1215.0168,,,,0,25,25,25,1,175,105,,,,,,,,
,,656f94ed904a54c0c02bdc2a,65af547f72f417c9b9fa8802,2024-01-23_06h54.59.061,bars,2023.2.3,Win32,15.55209953,657b66ea316d21385b68909f,,,,,,,,,,,1215.0169,1215.9963,,,1216.5014,1216.69,,126,126,,,,,,,,,,,,,,,,bars/044.png,bars/mask008.png,,,,,,,,,,,,0,2,,,,,,,10,2,10,2,,,,,,,,,,,1215.9964,1216.5014,1216.69,1218.2124,space,1.4333,,1218.2124,51,29,1219.1671,1219.1671,1219.1678,,,,0,26,26,26,1,75,155,,,,,,,,
,,656f94ed904a54c0c02bdc2a,65af547f72f417c9b9fa8802,2024-01-23_06h54.59.061,bars,2023.2.3,Win32,15.55209953,657b66ea316d21385b68909f,,,,,,,,,,,1219.1679,1220.123,,,1220.6276,1220.8715,,48,48,,,,,,,,,,,,,,,,bars/029.png,bars/mask004.png,,,,,,,,,,,,4,2,,,,,,,8,4,7,4,,,,,,,,,,,1220.1231,1220.6275,1220.8715,1222.9647,space,2.0068,,1222.9647,42,3,1223.9373,1223.9374,1223.9379,,,,0,27,27,27,1,90,45,,,,,,,,
,,656f94ed904a54c0c02bdc2a,65af547f72f417c9b9fa8802,2024-01-23_06h54.59.061,bars,2023.2.3,Win32,15.55209953,657b66ea316d21385b68909f,,,,,,,,,,,1223.938,1224.906,,,1225.4098,1225.5941,,38,38,,,,,,,,,,,,,,,,bars/029.png,bars/mask000.png,,,,,,,,,,,,5,2,,,,,,,6,6,4,7,,,,,,,,,,,1224.906,1225.4098,1225.5941,1233.5223,space,7.8568,,1233.5223,52,7,1234.507,1234.507,1234.5074,,,,0,28,28,28,1,90,45,,,,,,,,
,,656f94ed904a54c0c02bdc2a,65af547f72f417c9b9fa8802,2024-01-23_06h54.59.061,bars,2023.2.3,Win32,15.55209953,657b66ea316d21385b68909f,,,,,,,,,,,1234.5075,1235.4941,,,1235.9405,1236.2035,,149,149,,,,,,,,,,,,,,,,bars/014.png,bars/mask004.png,,,,,,,,,,,,0,2,,,,,,,4,4,3,4,,,,,,,,,,,1235.4941,1235.9405,1236.2035,1237.4981,space,1.2069,,1237.4982,69,31,1238.5025,1238.5025,1238.503,,,,0,29,29,29,1,80,0,,,,,,,,
,,656f94ed904a54c0c02bdc2a,65af547f72f417c9b9fa8802,2024-01-23_06h54.59.061,bars,2023.2.3,Win32,15.55209953,657b66ea316d21385b68909f,,,,,,,,,,,1238.5031,1239.4838,,,1239.992,1240.2591,,151,151,,,,,,,,,,,,,,,,bars/044.png,bars/mask001.png,,,,,,,,,,,,3,2,,,,,,,6,2,6,3,,,,,,,,,,,1239.4838,1239.992,1240.2591,1242.7247,space,2.3907,,1242.7247,76,4,1243.7304,1243.7305,1243.731,,,,0,30,30,30,1,75,155,,,,,,,,
,,656f94ed904a54c0c02bdc2a,65af547f72f417c9b9fa8802,2024-01-23_06h54.59.061,bars,2023.2.3,Win32,15.55209953,657b66ea316d21385b68909f,,,,,,,,,,,1243.7311,1244.7321,,,1245.176,1245.4188,,160,160,,,,,,,,,,,,,,,,bars/043.png,bars/mask000.png,,,,,,,,,,,,0,2,,,,,,,4,0,5,0,,,,,,,,,,,1244.7322,1245.1759,1245.4188,1247.8675,space,2.3708,,1247.8676,50,30,1248.8801,1248.8801,1248.8807,,,,0,31,31,31,1,30,130,,,,,,,,
,,656f94ed904a54c0c02bdc2a,65af547f72f417c9b9fa8802,2024-01-23_06h54.59.061,bars,2023.2.3,Win32,15.55209953,657b66ea316d21385b68909f,,,,,,,,,,,1248.8809,1249.8612,,,1250.3664,1250.6257,,36,36,,,,,,,,,,,,,,,,bars/007.png,bars/mask001.png,,,,,,,,,,,,1,2,,,,,,,6,2,6,2,,,,,,,,,,,1249.8613,1250.3664,1250.6258,1257.9267,space,7.2189,,1257.9267,41,19,1258.9092,1258.9092,1258.9097,,,,0,32,32,32,1,175,55,,,,,,,,
,,656f94ed904a54c0c02bdc2a,65af547f72f417c9b9fa8802,2024-01-23_06h54.59.061,bars,2023.2.3,Win32,15.55209953,657b66ea316d21385b68909f,,,,,,,,,,,1258.9098,1259.8957,,,1260.3983,1260.6394,,30,30,,,,,,,,,,,,,,,,bars/036.png,bars/mask004.png,,,,,,,,,,,,3,2,,,,,,,8,4,10,5,,,,,,,,,,,1259.8957,1260.3983,1260.6395,1264.0855,space,3.3767,,1264.0856,65,10,1265.02,1265.02,1265.0205,,,,0,33,33,33,1,145,20,,,,,,,,
,,656f94ed904a54c0c02bdc2a,65af547f72f417c9b9fa8802,2024-01-23_06h54.59.061,bars,2023.2.3,Win32,15.55209953,657b66ea316d21385b68909f,,,,,,,,,,,1265.0207,1266.0049,,,1266.4461,1266.6983,,37,217,,,,,,,,,,,,,,,,bars/030.png,bars/mask000.png,,,,,,,,,,,,0,2,,,,,,,10,6,8,5,,,,,,,,,,,1266.0049,1266.4461,1266.6983,1277.1662,space,10.3935,,1277.1662,77,28,1278.1693,1278.1693,1278.1748,,,,0,34,34,34,1,140,65,,,,,,,,
,,656f94ed904a54c0c02bdc2a,65af547f72f417c9b9fa8802,2024-01-23_06h54.59.061,bars,2023.2.3,Win32,15.55209953,657b66ea316d21385b68909f,,,,,,,,,,,1278.175,1279.1962,,,1279.6932,1279.9397,,75,75,,,,,,,,,,,,,,,,bars/042.png,bars/mask000.png,,,,,,,,,,,,8,2,,,,,,,10,8,10,8,,,,,,,,,,,1279.1962,1279.6932,1279.9398,1282.3554,space,2.335,,1282.3554,70,0,1283.2918,1283.2919,1283.2924,,,,0,35,35,35,1,145,75,,,,,,,,
,,656f94ed904a54c0c02bdc2a,65af547f72f417c9b9fa8802,2024-01-23_06h54.59.061,bars,2023.2.3,Win32,15.55209953,657b66ea316d21385b68909f,,,,,,,,,,,1283.2925,1284.2481,,,1284.7641,1285.0167,,175,-5,,,,,,,,,,,,,,,,bars/040.png,bars/mask005.png,,,,,,,,,,,,7,2,,,,,,,8,10,8,10,,,,,,,,,,,1284.2482,1284.7641,1285.0168,1291.6083,space,6.5185,,1291.6083,35,10,1292.5764,1292.5764,1292.5768,,,,0,36,36,36,1,140,5,,,,,,,,
,,656f94ed904a54c0c02bdc2a,65af547f72f417c9b9fa8802,2024-01-23_06h54.59.061,bars,2023.2.3,Win32,15.55209953,657b66ea316d21385b68909f,,,,,,,,,,,1292.5769,1293.5476,,,1294.0433,1294.301,,164,-16,,,,,,,,,,,,,,,,bars/005.png,bars/mask002.png,,,,,,,,,,,,2,2,,,,,,,6,10,5,9,,,,,,,,,,,1293.5476,1294.0433,1294.301,1302.5313,space,8.1446,,1302.5313,26,24,1303.499,1303.499,1303.4996,,,,0,37,37,37,1,10,140,,,,,,,,
,,656f94ed904a54c0c02bdc2a,65af547f72f417c9b9fa8802,2024-01-23_06h54.59.061,bars,2023.2.3,Win32,15.55209953,657b66ea316d21385b68909f,,,,,,,,,,,1303.4996,1304.4913,,,1305.0058,1305.2601,,101,101,,,,,,,,,,,,,,,,bars/019.png,bars/mask007.png,,,,,,,,,,,,7,2,,,,,,,4,8,4,8,,,,,,,,,,,1304.4913,1305.0058,1305.2601,1316.6468,space,11.3059,,1316.6468,56,4,1317.6328,1317.6329,1317.6383,,,,0,38,38,38,1,45,105,,,,,,,,
,,656f94ed904a54c0c02bdc2a,65af547f72f417c9b9fa8802,2024-01-23_06h54.59.061,bars,2023.2.3,Win32,15.55209953,657b66ea316d21385b68909f,,,,,,,,,,,1317.6384,1318.6127,,,1319.1269,1319.3738,,152,152,,,,,,,,,,,,,,,,bars/024.png,bars/mask008.png,,,,,,,,,,,,2,2,,,,,,,2,6,2,5,,,,,,,,,,,1318.6127,1319.1268,1319.3738,1327.014,space,7.5526,,1327.0141,32,18,1327.9956,1327.9956,1327.9961,,,,0,39,39,39,1,120,170,,,,,,,,
,,656f94ed904a54c0c02bdc2a,65af547f72f417c9b9fa8802,2024-01-23_06h54.59.061,bars,2023.2.3,Win32,15.55209953,657b66ea316d21385b68909f,,,,,,,,,,,1327.9963,1328.9696,,,1329.4811,1329.7348,,33,33,,,,,,,,,,,,,,,,bars/029.png,bars/mask003.png,,,,,,,,,,,,4,2,,,,,,,4,8,5,7,,,,,,,,,,,1328.9696,1329.4811,1329.7348,1333.7013,space,3.8837,,1333.7013,57,12,1334.6877,1334.6877,1334.6883,,,,0,40,40,40,1,90,45,,,,,,,,
,,656f94ed904a54c0c02bdc2a,65af547f72f417c9b9fa8802,2024-01-23_06h54.59.061,bars,2023.2.3,Win32,15.55209953,657b66ea316d21385b68909f,,,,,,,,,,,1334.6884,1335.6373,,,1336.1314,1336.3913,,81,81,,,,,,,,,,,,,,,,bars/011.png,bars/mask006.png,,,,,,,,,,,,4,2,,,,,,,2,6,2,5,,,,,,,,,,,1335.6374,1336.1314,1336.3914,1339.6588,space,3.1919,,1339.6588,79,4,1340.6608,1340.6608,1340.6613,,,,0,41,41,41,1,160,85,,,,,,,,
,,656f94ed904a54c0c02bdc2a,65af547f72f417c9b9fa8802,2024-01-23_06h54.59.061,bars,2023.2.3,Win32,15.55209953,657b66ea316d21385b68909f,,,,,,,,,,,1340.6614,1341.6513,,,1342.1633,1342.4204,,163,163,,,,,,,,,,,,,,,,bars/048.png,bars/mask005.png,,,,,,,,,,,,2,2,,,,,,,0,4,0,3,,,,,,,,,,,1341.6513,1342.1633,1342.4204,1348.781,space,6.2915,,1348.7811,67,12,1349.767,1349.7671,1349.7675,,,,0,42,42,42,1,50,175,,,,,,,,
,,656f94ed904a54c0c02bdc2a,65af547f72f417c9b9fa8802,2024-01-23_06h54.59.061,bars,2023.2.3,Win32,15.55209953,657b66ea316d21385b68909f,,,,,,,,,,,1349.7676,1350.7513,,,1351.2586,1351.4427,,60,60,,,,,,,,,,,,,,,,bars/017.png,bars/mask006.png,,,,,,,,,,,,2,2,,,,,,,2,2,1,3,,,,,,,,,,,1350.7514,1351.2585,1351.4427,1356.1908,space,4.6708,,1356.1908,85,15,1357.1707,1357.1707,1357.1712,,,,0,43,43,43,1,145,45,,,,,,,,
,,656f94ed904a54c0c02bdc2a,65af547f72f417c9b9fa8802,2024-01-23_06h54.59.061,bars,2023.2.3,Win32,15.55209953,657b66ea316d21385b68909f,,,,,,,,,,,1357.1713,1358.1653,,,1358.6416,1358.8806,,71,251,,,,,,,,,,,,,,,,bars/038.png,bars/mask004.png,,,,,,,,,,,,4,2,,,,,,,4,4,5,4,,,,,,,,,,,1358.1653,1358.6415,1358.8806,1367.9393,space,8.9799,,1367.9393,86,1,1368.942,1368.9421,1368.9425,,,,0,44,44,44,1,165,70,,,,,,,,
,,656f94ed904a54c0c02bdc2a,65af547f72f417c9b9fa8802,2024-01-23_06h54.59.061,bars,2023.2.3,Win32,15.55209953,657b66ea316d21385b68909f,,,,,,,,,,,1368.9427,1369.9445,,,1370.3864,1370.636,,58,238,,,,,,,,,,,,,,,,bars/017.png,bars/mask004.png,,,,,,,,,,,,1,2,,,,,,,6,2,5,2,,,,,,,,,,,1369.9445,1370.3864,1370.636,1377.1437,space,6.421,,1377.1437,87,13,1378.1664,1378.1664,1378.167,,,,0,45,45,45,1,145,45,,,,,,,,
,,656f94ed904a54c0c02bdc2a,65af547f72f417c9b9fa8802,2024-01-23_06h54.59.061,bars,2023.2.3,Win32,15.55209953,657b66ea316d21385b68909f,,,,,,,,,,,1378.1672,1379.131,,,1379.6321,1379.8193,,135,135,,,,,,,,,,,,,,,,bars/043.png,bars/mask006.png,,,,,,,,,,,,2,2,,,,,,,4,4,5,2,,,,,,,,,,,1379.1311,1379.6321,1379.8194,1386.1057,space,6.2001,,1386.1058,75,5,1387.1094,1387.1095,1387.11,,,,0,46,46,46,1,30,130,,,,,,,,
,,656f94ed904a54c0c02bdc2a,65af547f72f417c9b9fa8802,2024-01-23_06h54.59.061,bars,2023.2.3,Win32,15.55209953,657b66ea316d21385b68909f,,,,,,,,,,,1387.1101,1388.1304,,,1388.6338,1388.8695,,112,112,,,,,,,,,,,,,,,,bars/009.png,bars/mask006.png,,,,,,,,,,,,2,2,,,,,,,6,2,7,2,,,,,,,,,,,1388.1304,1388.6337,1388.8695,1391.4921,space,2.5494,,1391.4921,83,7,1392.4683,1392.4683,1392.4688,,,,0,47,47,47,1,15,105,,,,,,,,
,,656f94ed904a54c0c02bdc2a,65af547f72f417c9b9fa8802,2024-01-23_06h54.59.061,bars,2023.2.3,Win32,15.55209953,657b66ea316d21385b68909f,,,,,,,,,,,1392.4689,1393.4527,,,1393.9522,1394.2056,,1,181,,,,,,,,,,,,,,,,bars/033.png,bars/mask009.png,,,,,,,,,,,,1,1,,,,,,,4,4,3,3,,,,,,,,,,,1393.4527,1393.9522,1394.2056,1402.8909,space,8.6047,,1402.891,24,26,1403.8591,1403.8592,1403.8653,,,,0,48,48,48,1,25,155,,,,,,,,
,,656f94ed904a54c0c02bdc2a,65af547f72f417c9b9fa8802,2024-01-23_06h54.59.061,bars,2023.2.3,Win32,15.55209953,657b66ea316d21385b68909f,,,,,,,,,,,1403.8654,1404.8408,,,1405.3382,1405.5937,,44,224,,,,,,,,,,,,,,,,bars/017.png,bars/mask008.png,,,,,,,,,,,,2,2,,,,,,,2,2,1,2,,,,,,,,,,,1404.8408,1405.3382,1405.5937,1413.5507,space,7.8828,,1413.5507,79,1,1414.5033,1414.5033,1414.5043,,,,0,49,49,49,1,145,45,,,,,,,,
,,656f94ed904a54c0c02bdc2a,65af547f72f417c9b9fa8802,2024-01-23_06h54.59.061,bars,2023.2.3,Win32,15.55209953,657b66ea316d21385b68909f,,,,,,,,,,,,,,,,,,,,,,,,,,,,,,,,,,,,,,,,,,,,,,,,,,,,,,,,,,,,,,,,,,,,,,,,,,,,,,,,,,,,,,,,,,,,,1414.5044,1474.4582,0,1,1,1,1,sequence_tables/blk020.csv
,,656f94ed904a54c0c02bdc2a,65af547f72f417c9b9fa8802,2024-01-23_06h54.59.061,bars,2023.2.3,Win32,15.55209953,657b66ea316d21385b68909f,,,,,,,,,,,1482.4208,1483.4216,,,1483.9285,1484.1802,,103,103,,,,,,,,,,,,,,,,bars/001.png,bars/mask001.png,,,,,,,,,,,,4,2,,,,,,,1,9,1,9,,,,,,1474.4638,1482.419,space,7.8682,,1483.4216,1483.9284,1484.1802,1486.8026,space,2.5438,,1486.8027,27,18,1487.774,1487.774,1487.7746,,,,0,0,0,0,1,130,85,,,,,,,,
,,656f94ed904a54c0c02bdc2a,65af547f72f417c9b9fa8802,2024-01-23_06h54.59.061,bars,2023.2.3,Win32,15.55209953,657b66ea316d21385b68909f,,,,,,,,,,,1487.7747,1488.7771,,,1489.3059,1489.5601,,151,-29,,,,,,,,,,,,,,,,bars/004.png,bars/mask006.png,,,,,,,,,,,,1,2,,,,,,,0,10,1,10,,,,,,,,,,,1488.7771,1489.3059,1489.5601,1495.4093,space,5.7684,,1495.4093,54,26,1496.393,1496.3931,1496.3983,,,,0,1,1,1,1,25,125,,,,,,,,
,,656f94ed904a54c0c02bdc2a,65af547f72f417c9b9fa8802,2024-01-23_06h54.59.061,bars,2023.2.3,Win32,15.55209953,657b66ea316d21385b68909f,,,,,,,,,,,1496.3984,1497.4013,,,1497.9042,1498.1536,,49,229,,,,,,,,,,,,,,,,bars/030.png,bars/mask002.png,,,,,,,,,,,,4,2,,,,,,,0,8,0,8,,,,,,,,,,,1497.4013,1497.9042,1498.1536,1506.0755,space,7.8481,,1506.0756,89,16,1507.0703,1507.0703,1507.0757,,,,0,2,2,2,1,140,65,,,,,,,,
,,656f94ed904a54c0c02bdc2a,65af547f72f417c9b9fa8802,2024-01-23_06h54.59.061,bars,2023.2.3,Win32,15.55209953,657b66ea316d21385b68909f,,,,,,,,,,,1507.0758,1508.082,,,1508.589,1508.8358,,73,73,,,,,,,,,,,,,,,,bars/011.png,bars/mask006.png,,,,,,,,,,,,5,2,,,,,,,2,10,1,9,,,,,,,,,,,1508.082,1508.589,1508.8358,1511.2937,space,2.3712,,1511.2938,87,12,1512.2811,1512.2811,1512.2816,,,,0,3,3,3,1,160,85,,,,,,,,
,,656f94ed904a54c0c02bdc2a,65af547f72f417c9b9fa8802,2024-01-23_06h54.59.061,bars,2023.2.3,Win32,15.55209953,657b66ea316d21385b68909f,,,,,,,,,,,1512.2817,1513.2818,,,1513.7921,1514.0357,,161,-19,,,,,,,,,,,,,,,,bars/044.png,bars/mask007.png,,,,,,,,,,,,8,2,,,,,,,0,10,0,10,,,,,,,,,,,1513.2819,1513.7921,1514.0358,1517.5328,space,3.4231,,1517.5328,86,6,1518.5272,1518.5272,1518.5277,,,,0,4,4,4,1,75,155,,,,,,,,
,,656f94ed904a54c0c02bdc2a,65af547f72f417c9b9fa8802,2024-01-23_06h54.59.061,bars,2023.2.3,Win32,15.55209953,657b66ea316d21385b68909f,,,,,,,,,,,1518.5278,1519.5492,,,1520.047,1520.3004,,78,78,,,,,,,,,,,,,,,,bars/041.png,bars/mask007.png,,,,,,,,,,,,7,2,,,,,,,0,10,1,9,,,,,,,,,,,1519.5492,1520.047,1520.3005,1523.3006,space,2.9245,,1523.3006,58,7,1524.2757,1524.2758,1524.2824,,,,0,5,5,5,1,20,85,,,,,,,,
,,656f94ed904a54c0c02bdc2a,65af547f72f417c9b9fa8802,2024-01-23_06h54.59.061,bars,2023.2.3,Win32,15.55209953,657b66ea316d21385b68909f,,,,,,,,,,,1524.2826,1525.2475,,,1525.7736,1526.0289,,8,188,,,,,,,,,,,,,,,,bars/015.png,bars/mask009.png,,,,,,,,,,,,1,2,,,,,,,2,10,2,9,,,,,,,,,,,1525.2475,1525.7736,1526.029,1528.841,space,2.7315,,1528.8412,78,28,1529.844,1529.8441,1529.8447,,,,0,6,6,6,1,110,160,,,,,,,,
,,656f94ed904a54c0c02bdc2a,65af547f72f417c9b9fa8802,2024-01-23_06h54.59.061,bars,2023.2.3,Win32,15.55209953,657b66ea316d21385b68909f,,,,,,,,,,,1529.8448,1530.8074,,,1531.2424,1531.5053,,179,-1,,,,,,,,,,,,,,,,bars/015.png,bars/mask004.png,,,,,,,,,,,,3,2,,,,,,,0,8,0,8,,,,,,,,,,,1530.8074,1531.2424,1531.5053,1536.1319,space,4.5382,,1536.132,69,19,1537.1416,1537.1416,1537.1419,,,,0,7,7,7,1,110,160,,,,,,,,
,,656f94ed904a54c0c02bdc2a,65af547f72f417c9b9fa8802,2024-01-23_06h54.59.061,bars,2023.2.3,Win32,15.55209953,657b66ea316d21385b68909f,,,,,,,,,,,1537.142,1538.1408,,,1538.5888,1538.7759,,24,204,,,,,,,,,,,,,,,,bars/031.png,bars/mask006.png,,,,,,,,,,,,6,2,,,,,,,0,10,0,9,,,,,,,,,,,1538.1408,1538.5887,1538.776,1543.7426,space,4.8878,,1543.7426,84,11,1544.72,1544.72,1544.7204,,,,0,8,8,8,1,120,35,,,,,,,,
,,656f94ed904a54c0c02bdc2a,65af547f72f417c9b9fa8802,2024-01-23_06h54.59.061,bars,2023.2.3,Win32,15.55209953,657b66ea316d21385b68909f,,,,,,,,,,,1544.7206,1545.6746,,,1546.1744,1546.4369,,136,136,,,,,,,,,,,,,,,,bars/037.png,bars/mask008.png,,,,,,,,,,,,2,1,,,,,,,2,10,3,10,,,,,,,,,,,1545.6746,1546.1744,1546.437,1550.1874,space,3.6706,,1550.1875,14,31,1551.1443,1551.1443,1551.1455,,,,0,9,9,9,1,150,105,,,,,,,,
,,656f94ed904a54c0c02bdc2a,65af547f72f417c9b9fa8802,2024-01-23_06h54.59.061,bars,2023.2.3,Win32,15.55209953,657b66ea316d21385b68909f,,,,,,,,,,,1551.1456,1552.1394,,,1552.6452,1552.8978,,61,61,,,,,,,,,,,,,,,,bars/011.png,bars/mask009.png,,,,,,,,,,,,2,2,,,,,,,4,10,4,10,,,,,,,,,,,1552.1394,1552.6452,1552.8978,1558.6528,space,5.6657,,1558.6528,81,24,1559.6043,1559.6043,1559.6054,,,,0,10,10,10,1,160,85,,,,,,,,
,,656f94ed904a54c0c02bdc2a,65af547f72f417c9b9fa8802,2024-01-23_06h54.59.061,bars,2023.2.3,Win32,15.55209953,657b66ea316d21385b68909f,,,,,,,,,,,1559.6055,1560.5824,,,1561.0927,1561.3416,,87,87,,,,,,,,,,,,,,,,bars/018.png,bars/mask001.png,,,,,,,,,,,,9,2,,,,,,,2,10,3,10,,,,,,,,,,,1560.5825,1561.0926,1561.3416,1565.9494,space,4.5306,,1565.9494,63,3,1566.9384,1566.9384,1566.9389,,,,0,11,11,11,1,150,90,,,,,,,,
,,656f94ed904a54c0c02bdc2a,65af547f72f417c9b9fa8802,2024-01-23_06h54.59.061,bars,2023.2.3,Win32,15.55209953,657b66ea316d21385b68909f,,,,,,,,,,,1566.939,1567.9266,,,1568.4316,1568.6177,,52,52,,,,,,,,,,,,,,,,bars/047.png,bars/mask004.png,,,,,,,,,,,,3,2,,,,,,,4,8,4,8,,,,,,,,,,,1567.9266,1568.4315,1568.6177,1572.6624,space,3.9605,,1572.6624,37,18,1573.6429,1573.643,1573.6436,,,,0,12,12,12,1,15,70,,,,,,,,
,,656f94ed904a54c0c02bdc2a,65af547f72f417c9b9fa8802,2024-01-23_06h54.59.061,bars,2023.2.3,Win32,15.55209953,657b66ea316d21385b68909f,,,,,,,,,,,1573.6437,1574.6338,,,1575.1411,1575.3773,,147,-33,,,,,,,,,,,,,,,,bars/004.png,bars/mask008.png,,,,,,,,,,,,2,2,,,,,,,2,10,2,9,,,,,,,,,,,1574.6338,1575.141,1575.3773,1582.8669,space,7.4069,,1582.8669,58,22,1583.8433,1583.8434,1583.8483,,,,0,13,13,13,1,25,125,,,,,,,,
,,656f94ed904a54c0c02bdc2a,65af547f72f417c9b9fa8802,2024-01-23_06h54.59.061,bars,2023.2.3,Win32,15.55209953,657b66ea316d21385b68909f,,,,,,,,,,,1583.8485,1584.8289,,,1585.3441,1585.5835,,116,116,,,,,,,,,,,,,,,,bars/009.png,bars/mask007.png,,,,,,,,,,,,6,2,,,,,,,4,10,5,10,,,,,,,,,,,1584.829,1585.344,1585.5835,1591.381,space,5.725,,1591.381,79,11,1592.3543,1592.3543,1592.3548,,,,0,14,14,14,1,15,105,,,,,,,,
,,656f94ed904a54c0c02bdc2a,65af547f72f417c9b9fa8802,2024-01-23_06h54.59.061,bars,2023.2.3,Win32,15.55209953,657b66ea316d21385b68909f,,,,,,,,,,,1592.355,1593.3298,,,1593.7811,1594.0448,,102,102,,,,,,,,,,,,,,,,bars/021.png,bars/mask002.png,,,,,,,,,,,,0,2,,,,,,,6,8,6,9,,,,,,,,,,,1593.3299,1593.781,1594.0449,1603.9069,space,9.7839,,1603.9069,53,32,1604.9206,1604.9206,1604.9258,,,,0,15,15,15,1,155,70,,,,,,,,
,,656f94ed904a54c0c02bdc2a,65af547f72f417c9b9fa8802,2024-01-23_06h54.59.061,bars,2023.2.3,Win32,15.55209953,657b66ea316d21385b68909f,,,,,,,,,,,1604.9259,1605.9143,,,1606.4217,1606.682,,148,148,,,,,,,,,,,,,,,,bars/028.png,bars/mask000.png,,,,,,,,,,,,0,2,,,,,,,4,6,3,7,,,,,,,,,,,1605.9144,1606.4216,1606.682,1609.5469,space,2.7888,,1609.5469,77,28,1610.5617,1610.5617,1610.5623,,,,0,16,16,16,1,45,120,,,,,,,,
,,656f94ed904a54c0c02bdc2a,65af547f72f417c9b9fa8802,2024-01-23_06h54.59.061,bars,2023.2.3,Win32,15.55209953,657b66ea316d21385b68909f,,,,,,,,,,,1610.5625,1611.5284,,,1612.0246,1612.2706,,9,189,,,,,,,,,,,,,,,,bars/040.png,bars/mask003.png,,,,,,,,,,,,5,2,,,,,,,6,4,7,6,,,,,,,,,,,1611.5284,1612.0245,1612.2706,1616.4395,space,4.087,,1616.4395,49,4,1617.4137,1617.4137,1617.4142,,,,0,17,17,17,1,140,5,,,,,,,,
,,656f94ed904a54c0c02bdc2a,65af547f72f417c9b9fa8802,2024-01-23_06h54.59.061,bars,2023.2.3,Win32,15.55209953,657b66ea316d21385b68909f,,,,,,,,,,,1617.4143,1618.3548,,,1618.8564,1619.1071,,84,84,,,,,,,,,,,,,,,,bars/018.png,bars/mask005.png,,,,,,,,,,,,2,2,,,,,,,8,2,8,2,,,,,,,,,,,1618.3548,1618.8564,1619.1071,1622.6409,space,3.4437,,1622.6409,66,6,1623.6741,1623.6741,1623.6746,,,,0,18,18,18,1,150,90,,,,,,,,
,,656f94ed904a54c0c02bdc2a,65af547f72f417c9b9fa8802,2024-01-23_06h54.59.061,bars,2023.2.3,Win32,15.55209953,657b66ea316d21385b68909f,,,,,,,,,,,1623.6747,1624.6483,,,1625.1461,1625.401,,172,-8,,,,,,,,,,,,,,,,bars/048.png,bars/mask004.png,,,,,,,,,,,,3,2,,,,,,,10,4,10,3,,,,,,,,,,,1624.6483,1625.1461,1625.4011,1632.317,space,6.8332,,1632.317,58,3,1633.3174,1633.3175,1633.324,,,,0,19,19,19,1,50,175,,,,,,,,
,,656f94ed904a54c0c02bdc2a,65af547f72f417c9b9fa8802,2024-01-23_06h54.59.061,bars,2023.2.3,Win32,15.55209953,657b66ea316d21385b68909f,,,,,,,,,,,1633.3242,1634.3252,,,1634.8431,1635.0855,,178,178,,,,,,,,,,,,,,,,bars/015.png,bars/mask008.png,,,,,,,,,,,,2,2,,,,,,,10,6,10,6,,,,,,,,,,,1634.3252,1634.8431,1635.0855,1640.8193,space,5.6501,,1640.8194,68,18,1641.7885,1641.7885,1641.789,,,,0,20,20,20,1,110,160,,,,,,,,
,,656f94ed904a54c0c02bdc2a,65af547f72f417c9b9fa8802,2024-01-23_06h54.59.061,bars,2023.2.3,Win32,15.55209953,657b66ea316d21385b68909f,,,,,,,,,,,1641.7892,1642.7239,,,1643.2015,1643.4476,,68,68,,,,,,,,,,,,,,,,bars/001.png,bars/mask007.png,,,,,,,,,,,,2,2,,,,,,,10,4,9,4,,,,,,,,,,,1642.7239,1643.2015,1643.4476,1650.3677,space,6.8467,,1650.3678,62,17,1651.3739,1651.374,1651.3747,,,,0,21,21,21,1,130,85,,,,,,,,
,,656f94ed904a54c0c02bdc2a,65af547f72f417c9b9fa8802,2024-01-23_06h54.59.061,bars,2023.2.3,Win32,15.55209953,657b66ea316d21385b68909f,,,,,,,,,,,1651.3749,1652.3689,,,1652.8704,1653.1297,,139,-41,,,,,,,,,,,,,,,,bars/023.png,bars/mask008.png,,,,,,,,,,,,1,2,,,,,,,10,6,10,7,,,,,,,,,,,1652.3689,1652.8704,1653.1297,1659.2771,space,6.0604,,1659.2771,61,24,1660.2402,1660.2402,1660.2455,,,,0,22,22,22,1,20,115,,,,,,,,
,,656f94ed904a54c0c02bdc2a,65af547f72f417c9b9fa8802,2024-01-23_06h54.59.061,bars,2023.2.3,Win32,15.55209953,657b66ea316d21385b68909f,,,,,,,,,,,1660.2456,1661.2527,,,1661.758,1662.0188,,172,-8,,,,,,,,,,,,,,,,bars/048.png,bars/mask006.png,,,,,,,,,,,,4,2,,,,,,,8,4,7,4,,,,,,,,,,,1661.2527,1661.758,1662.0188,1665.6031,space,3.5142,,1665.6032,58,3,1666.5507,1666.5507,1666.5514,,,,0,23,23,23,1,50,175,,,,,,,,
,,656f94ed904a54c0c02bdc2a,65af547f72f417c9b9fa8802,2024-01-23_06h54.59.061,bars,2023.2.3,Win32,15.55209953,657b66ea316d21385b68909f,,,,,,,,,,,1666.5517,1667.5408,,,1668.0617,1668.2466,,46,46,,,,,,,,,,,,,,,,bars/010.png,bars/mask000.png,,,,,,,,,,,,4,2,,,,,,,6,6,6,6,,,,,,,,,,,1667.5409,1668.0617,1668.2466,1672.7236,space,4.4066,,1672.7236,61,9,1673.7108,1673.7108,1673.7113,,,,0,24,24,24,1,165,55,,,,,,,,
,,656f94ed904a54c0c02bdc2a,65af547f72f417c9b9fa8802,2024-01-23_06h54.59.061,bars,2023.2.3,Win32,15.55209953,657b66ea316d21385b68909f,,,,,,,,,,,1673.7115,1674.6947,,,1675.19,1675.4488,,109,109,,,,,,,,,,,,,,,,bars/006.png,bars/mask007.png,,,,,,,,,,,,6,2,,,,,,,4,8,4,8,,,,,,,,,,,1674.6947,1675.19,1675.4488,1678.919,space,3.3866,,1678.9191,74,9,1679.915,1679.915,1679.9155,,,,0,25,25,25,1,35,100,,,,,,,,
,,656f94ed904a54c0c02bdc2a,65af547f72f417c9b9fa8802,2024-01-23_06h54.59.061,bars,2023.2.3,Win32,15.55209953,657b66ea316d21385b68909f,,,,,,,,,,,1679.9156,1680.9231,,,1681.4253,1681.6718,,70,70,,,,,,,,,,,,,,,,bars/042.png,bars/mask002.png,,,,,,,,,,,,5,2,,,,,,,6,6,4,6,,,,,,,,,,,1680.9231,1681.4253,1681.6718,1686.7649,space,5.0148,,1686.765,75,5,1687.7661,1687.7661,1687.7667,,,,0,26,26,26,1,145,75,,,,,,,,
,,656f94ed904a54c0c02bdc2a,65af547f72f417c9b9fa8802,2024-01-23_06h54.59.061,bars,2023.2.3,Win32,15.55209953,657b66ea316d21385b68909f,,,,,,,,,,,1687.7669,1688.7418,,,1689.2525,1689.5169,,118,118,,,,,,,,,,,,,,,,bars/028.png,bars/mask002.png,,,,,,,,,,,,7,2,,,,,,,4,8,3,8,,,,,,,,,,,1688.7418,1689.2525,1689.5169,1697.4278,space,7.8315,,1697.4278,73,2,1698.3866,1698.3866,1698.3873,,,,0,27,27,27,1,45,120,,,,,,,,
,,656f94ed904a54c0c02bdc2a,65af547f72f417c9b9fa8802,2024-01-23_06h54.59.061,bars,2023.2.3,Win32,15.55209953,657b66ea316d21385b68909f,,,,,,,,,,,1698.3875,1699.3876,,,1699.8893,1700.1556,,175,175,,,,,,,,,,,,,,,,bars/015.png,bars/mask008.png,,,,,,,,,,,,3,2,,,,,,,6,6,7,5,,,,,,,,,,,1699.3876,1699.8893,1700.1556,1709.2099,space,8.9742,,1709.2099,65,15,1710.2144,1710.2144,1710.215,,,,0,28,28,28,1,110,160,,,,,,,,
,,656f94ed904a54c0c02bdc2a,65af547f72f417c9b9fa8802,2024-01-23_06h54.59.061,bars,2023.2.3,Win32,15.55209953,657b66ea316d21385b68909f,,,,,,,,,,,1710.2151,1711.201,,,1711.6977,1711.9415,,169,-11,,,,,,,,,,,,,,,,bars/024.png,bars/mask001.png,,,,,,,,,,,,9,2,,,,,,,4,8,5,9,,,,,,,,,,,1711.201,1711.6977,1711.9415,1714.2086,space,2.1891,,1714.2086,49,1,1715.197,1715.197,1715.1975,,,,0,29,29,29,1,120,170,,,,,,,,
,,656f94ed904a54c0c02bdc2a,65af547f72f417c9b9fa8802,2024-01-23_06h54.59.061,bars,2023.2.3,Win32,15.55209953,657b66ea316d21385b68909f,,,,,,,,,,,1715.1976,1716.2049,,,1716.7072,1716.957,,48,48,,,,,,,,,,,,,,,,bars/025.png,bars/mask007.png,,,,,,,,,,,,4,2,,,,,,,6,6,5,5,,,,,,,,,,,1716.2049,1716.7072,1716.9571,1720.8443,space,3.8022,,1720.8443,57,8,1721.7934,1721.7934,1721.7939,,,,0,30,30,30,1,105,40,,,,,,,,
,,656f94ed904a54c0c02bdc2a,65af547f72f417c9b9fa8802,2024-01-23_06h54.59.061,bars,2023.2.3,Win32,15.55209953,657b66ea316d21385b68909f,,,,,,,,,,,1721.7939,1722.7734,,,1723.2613,1723.5147,,43,43,,,,,,,,,,,,,,,,bars/027.png,bars/mask003.png,,,,,,,,,,,,8,2,,,,,,,4,8,3,10,,,,,,,,,,,1722.7734,1723.2613,1723.5147,1725.1957,space,1.594,,1725.1957,67,7,1726.1837,1726.1838,1726.1843,,,,0,31,31,31,1,110,50,,,,,,,,
,,656f94ed904a54c0c02bdc2a,65af547f72f417c9b9fa8802,2024-01-23_06h54.59.061,bars,2023.2.3,Win32,15.55209953,657b66ea316d21385b68909f,,,,,,,,,,,1726.1845,1727.1647,,,1727.6875,1727.9384,,125,125,,,,,,,,,,,,,,,,bars/028.png,bars/mask008.png,,,,,,,,,,,,6,2,,,,,,,2,6,4,7,,,,,,,,,,,1727.1647,1727.6875,1727.9385,1734.1523,space,6.1313,,1734.1523,80,5,1735.1675,1735.1675,1735.168,,,,0,32,32,32,1,45,120,,,,,,,,
,,656f94ed904a54c0c02bdc2a,65af547f72f417c9b9fa8802,2024-01-23_06h54.59.061,bars,2023.2.3,Win32,15.55209953,657b66ea316d21385b68909f,,,,,,,,,,,1735.1681,1736.1303,,,1736.6227,1736.8674,,77,77,,,,,,,,,,,,,,,,bars/046.png,bars/mask002.png,,,,,,,,,,,,6,2,,,,,,,0,8,0,8,,,,,,,,,,,1736.1303,1736.6227,1736.8675,1738.5487,space,1.6005,,1738.5488,78,8,1739.5334,1739.5334,1739.5339,,,,0,33,33,33,1,155,85,,,,,,,,
,,656f94ed904a54c0c02bdc2a,65af547f72f417c9b9fa8802,2024-01-23_06h54.59.061,bars,2023.2.3,Win32,15.55209953,657b66ea316d21385b68909f,,,,,,,,,,,1739.5339,1740.5315,,,1740.9778,1741.1657,,172,172,,,,,,,,,,,,,,,,bars/014.png,bars/mask009.png,,,,,,,,,,,,5,2,,,,,,,2,6,2,7,,,,,,,,,,,1740.5316,1740.9777,1741.1658,1745.8588,space,4.6161,,1745.8589,88,8,1746.8749,1746.8749,1746.8754,,,,0,34,34,34,1,80,0,,,,,,,,
,,656f94ed904a54c0c02bdc2a,65af547f72f417c9b9fa8802,2024-01-23_06h54.59.061,bars,2023.2.3,Win32,15.55209953,657b66ea316d21385b68909f,,,,,,,,,,,1746.8755,1747.8869,,,1748.3208,1748.5847,,84,84,,,,,,,,,,,,,,,,bars/002.png,bars/mask004.png,,,,,,,,,,,,4,2,,,,,,,0,4,1,4,,,,,,,,,,,1747.8869,1748.3208,1748.5848,1752.5083,space,3.839,,1752.5083,46,1,1753.4547,1753.4547,1753.4553,,,,0,35,35,35,1,130,85,,,,,,,,
,,656f94ed904a54c0c02bdc2a,65af547f72f417c9b9fa8802,2024-01-23_06h54.59.061,bars,2023.2.3,Win32,15.55209953,657b66ea316d21385b68909f,,,,,,,,,,,1753.4554,1754.458,,,1754.9449,1755.1971,,76,76,,,,,,,,,,,,,,,,bars/046.png,bars/mask008.png,,,,,,,,,,,,3,2,,,,,,,0,6,0,4,,,,,,,,,,,1754.458,1754.9449,1755.1972,1758.1203,space,2.8413,,1758.1204,79,9,1759.1046,1759.1046,1759.1051,,,,0,36,36,36,1,155,85,,,,,,,,
,,656f94ed904a54c0c02bdc2a,65af547f72f417c9b9fa8802,2024-01-23_06h54.59.061,bars,2023.2.3,Win32,15.55209953,657b66ea316d21385b68909f,,,,,,,,,,,1759.1053,1760.0755,,,1760.527,1760.7126,,164,-16,,,,,,,,,,,,,,,,bars/044.png,bars/mask001.png,,,,,,,,,,,,4,2,,,,,,,2,4,2,5,,,,,,,,,,,1760.0755,1760.527,1760.7126,1763.9035,space,3.1133,,1763.9036,89,9,1764.8726,1764.8726,1764.8731,,,,0,37,37,37,1,75,155,,,,,,,,
,,656f94ed904a54c0c02bdc2a,65af547f72f417c9b9fa8802,2024-01-23_06h54.59.061,bars,2023.2.3,Win32,15.55209953,657b66ea316d21385b68909f,,,,,,,,,,,1764.8732,1765.8943,,,1766.3378,1766.5851,,86,86,,,,,,,,,,,,,,,,bars/038.png,bars/mask007.png,,,,,,,,,,,,3,2,,,,,,,4,6,5,6,,,,,,,,,,,1765.8943,1766.3377,1766.5851,1770.533,space,3.8767,,1770.533,79,16,1771.5038,1771.5038,1771.5043,,,,0,38,38,38,1,165,70,,,,,,,,
,,656f94ed904a54c0c02bdc2a,65af547f72f417c9b9fa8802,2024-01-23_06h54.59.061,bars,2023.2.3,Win32,15.55209953,657b66ea316d21385b68909f,,,,,,,,,,,1771.5044,1772.4682,,,1772.9011,1773.1434,,103,103,,,,,,,,,,,,,,,,bars/006.png,bars/mask003.png,,,,,,,,,,,,7,2,,,,,,,2,8,1,8,,,,,,,,,,,1772.4682,1772.9011,1773.1434,1774.756,space,1.5425,,1774.756,68,3,1775.7535,1775.7535,1775.7539,,,,0,39,39,39,1,35,100,,,,,,,,
,,656f94ed904a54c0c02bdc2a,65af547f72f417c9b9fa8802,2024-01-23_06h54.59.061,bars,2023.2.3,Win32,15.55209953,657b66ea316d21385b68909f,,,,,,,,,,,1775.7541,1776.7416,,,1777.1844,1777.4481,,145,-35,,,,,,,,,,,,,,,,bars/004.png,bars/mask003.png,,,,,,,,,,,,3,2,,,,,,,0,10,0,10,,,,,,,,,,,1776.7416,1777.1843,1777.4481,1785.5026,space,7.9705,,1785.5026,60,20,1786.4863,1786.4864,1786.4869,,,,0,40,40,40,1,25,125,,,,,,,,
,,656f94ed904a54c0c02bdc2a,65af547f72f417c9b9fa8802,2024-01-23_06h54.59.061,bars,2023.2.3,Win32,15.55209953,657b66ea316d21385b68909f,,,,,,,,,,,1786.4871,1787.4833,,,1787.9834,1788.1696,,101,101,,,,,,,,,,,,,,,,bars/028.png,bars/mask009.png,,,,,,,,,,,,4,2,,,,,,,0,8,1,10,,,,,,,,,,,1787.4833,1787.9834,1788.1696,1791.6003,space,3.3492,,1791.6003,56,19,1792.5973,1792.5973,1792.5979,,,,0,41,41,41,1,45,120,,,,,,,,
,,656f94ed904a54c0c02bdc2a,65af547f72f417c9b9fa8802,2024-01-23_06h54.59.061,bars,2023.2.3,Win32,15.55209953,657b66ea316d21385b68909f,,,,,,,,,,,1792.598,1793.5961,,,1794.0916,1794.3443,,8,8,,,,,,,,,,,,,,,,bars/012.png,bars/mask008.png,,,,,,,,,,,,8,2,,,,,,,0,10,0,10,,,,,,,,,,,1793.5961,1794.0916,1794.3443,1797.0823,space,2.6511,,1797.0824,82,7,1798.0562,1798.0563,1798.0568,,,,0,42,42,42,1,90,15,,,,,,,,
,,656f94ed904a54c0c02bdc2a,65af547f72f417c9b9fa8802,2024-01-23_06h54.59.061,bars,2023.2.3,Win32,15.55209953,657b66ea316d21385b68909f,,,,,,,,,,,1798.0569,1798.9909,,,1799.4333,1799.6844,,108,108,,,,,,,,,,,,,,,,bars/019.png,bars/mask002.png,,,,,,,,,,,,9,2,,,,,,,2,10,2,10,,,,,,,,,,,1798.9909,1799.4333,1799.6844,1803.3249,space,3.5672,,1803.3249,63,3,1804.2729,1804.2729,1804.2733,,,,0,43,43,43,1,45,105,,,,,,,,
,,656f94ed904a54c0c02bdc2a,65af547f72f417c9b9fa8802,2024-01-23_06h54.59.061,bars,2023.2.3,Win32,15.55209953,657b66ea316d21385b68909f,,,,,,,,,,,1804.2735,1805.2629,,,1805.7762,1806.0429,,114,114,,,,,,,,,,,,,,,,bars/009.png,bars/mask008.png,,,,,,,,,,,,6,2,,,,,,,0,8,1,9,,,,,,,,,,,1805.263,1805.7762,1806.0429,1807.4677,space,1.3462,,1807.4677,81,9,1808.418,1808.418,1808.4187,,,,0,44,44,44,1,15,105,,,,,,,,
,,656f94ed904a54c0c02bdc2a,65af547f72f417c9b9fa8802,2024-01-23_06h54.59.061,bars,2023.2.3,Win32,15.55209953,657b66ea316d21385b68909f,,,,,,,,,,,1808.4188,1809.4164,,,1809.9308,1810.1874,,172,-8,,,,,,,,,,,,,,,,bars/045.png,bars/mask006.png,,,,,,,,,,,,4,2,,,,,,,0,10,0,10,,,,,,,,,,,1809.4164,1809.9308,1810.1874,1813.975,space,3.7149,,1813.975,72,18,1814.918,1814.9181,1814.9186,,,,0,45,45,45,1,100,10,,,,,,,,
,,656f94ed904a54c0c02bdc2a,65af547f72f417c9b9fa8802,2024-01-23_06h54.59.061,bars,2023.2.3,Win32,15.55209953,657b66ea316d21385b68909f,,,,,,,,,,,1814.9186,1815.884,,,1816.3805,1816.5621,,36,36,,,,,,,,,,,,,,,,bars/025.png,bars/mask005.png,,,,,,,,,,,,9,2,,,,,,,0,10,0,10,,,,,,,,,,,1815.884,1816.3805,1816.5621,1819.0674,space,2.426,,1819.0674,69,4,1820.0691,1820.0691,1820.0696,,,,0,46,46,46,1,105,40,,,,,,,,
,,656f94ed904a54c0c02bdc2a,65af547f72f417c9b9fa8802,2024-01-23_06h54.59.061,bars,2023.2.3,Win32,15.55209953,657b66ea316d21385b68909f,,,,,,,,,,,1820.0697,1821.0729,,,1821.5157,1821.7696,,67,67,,,,,,,,,,,,,,,,bars/011.png,bars/mask004.png,,,,,,,,,,,,3,2,,,,,,,0,8,0,8,,,,,,,,,,,1821.0729,1821.5157,1821.7696,1827.3617,space,5.5112,,1827.3618,87,18,1828.3585,1828.3585,1828.359,,,,0,47,47,47,1,160,85,,,,,,,,
,,656f94ed904a54c0c02bdc2a,65af547f72f417c9b9fa8802,2024-01-23_06h54.59.061,bars,2023.2.3,Win32,15.55209953,657b66ea316d21385b68909f,,,,,,,,,,,1828.3591,1829.361,,,1829.86,1830.0409,,121,121,,,,,,,,,,,,,,,,bars/028.png,bars/mask004.png,,,,,,,,,,,,7,2,,,,,,,0,6,0,7,,,,,,,,,,,1829.361,1829.86,1830.0409,1831.0253,space,0.9027,,1831.0253,76,1,1832.0086,1832.0086,1832.0091,,,,0,48,48,48,1,45,120,,,,,,,,
,,656f94ed904a54c0c02bdc2a,65af547f72f417c9b9fa8802,2024-01-23_06h54.59.061,bars,2023.2.3,Win32,15.55209953,657b66ea316d21385b68909f,,,,,,,,,,,1832.0092,1832.9672,,,1833.4833,1833.73,,65,65,,,,,,,,,,,,,,,,bars/046.png,bars/mask006.png,,,,,,,,,,,,2,2,,,,,,,2,4,3,5,,,,,,,,,,,1832.9672,1833.4833,1833.7301,1842.6809,space,8.8785,,1842.6809,90,20,1843.6467,1843.6467,1843.6473,,,,0,49,49,49,1,155,85,,,,,,,,
,,656f94ed904a54c0c02bdc2a,65af547f72f417c9b9fa8802,2024-01-23_06h54.59.061,bars,2023.2.3,Win32,15.55209953,657b66ea316d21385b68909f,,,,,,,,,,,,,,,,,,,,,,,,,,,,,,,,,,,,,,,,,,,,,,,,,,,,,,,,,,,,,,,,,,,,,,,,,,,,,,,,,,,,,,,,,,,,,1843.6473,1903.6263,0,2,2,3,1,sequence_tables/blk003.csv
,,656f94ed904a54c0c02bdc2a,65af547f72f417c9b9fa8802,2024-01-23_06h54.59.061,bars,2023.2.3,Win32,15.55209953,657b66ea316d21385b68909f,,,,,,,,,,,1946.2572,1947.236,,,1947.7349,1947.9929,,135,-45,,,,,,,,,,,,,,,,bars/006.png,bars/mask006.png,,,,,,,,,,,,0,2,,,,,,,4,7,3,7,,,,,,1903.6317,1946.2503,space,42.5332,,1947.236,1947.7348,1947.993,1952.8545,space,4.7759,,1952.8545,80,35,1953.8524,1953.8524,1953.8583,,,,0,0,0,0,1,35,100,,,,,,,,
,,656f94ed904a54c0c02bdc2a,65af547f72f417c9b9fa8802,2024-01-23_06h54.59.061,bars,2023.2.3,Win32,15.55209953,657b66ea316d21385b68909f,,,,,,,,,,,1953.8584,1954.8527,,,1955.339,1955.6014,,56,56,,,,,,,,,,,,,,,,bars/026.png,bars/mask009.png,,,,,,,,,,,,2,1,,,,,,,6,5,7,5,,,,,,,,,,,1954.8527,1955.339,1955.6014,1962.5461,space,6.8735,,1962.5461,21,29,1963.5191,1963.5192,1963.5204,,,,0,1,1,1,1,35,85,,,,,,,,
,,656f94ed904a54c0c02bdc2a,65af547f72f417c9b9fa8802,2024-01-23_06h54.59.061,bars,2023.2.3,Win32,15.55209953,657b66ea316d21385b68909f,,,,,,,,,,,1963.5206,1964.4813,,,1964.9634,1965.2241,,139,139,,,,,,,,,,,,,,,,bars/025.png,bars/mask000.png,,,,,,,,,,,,0,1,,,,,,,4,3,4,4,,,,,,,,,,,1964.4813,1964.9634,1965.2242,1968.0386,space,2.7422,,1968.0386,34,81,1969.0216,1969.0216,1969.0277,,,,0,2,2,2,1,105,40,,,,,,,,
,,656f94ed904a54c0c02bdc2a,65af547f72f417c9b9fa8802,2024-01-23_06h54.59.061,bars,2023.2.3,Win32,15.55209953,657b66ea316d21385b68909f,,,,,,,,,,,1969.0277,1970.0379,,,1970.5315,1970.7895,,43,43,,,,,,,,,,,,,,,,bars/022.png,bars/mask001.png,,,,,,,,,,,,1,2,,,,,,,2,5,2,5,,,,,,,,,,,1970.0379,1970.5315,1970.7896,1975.7373,space,4.8748,,1975.7373,52,23,1976.7303,1976.7303,1976.7363,,,,0,3,3,3,1,95,20,,,,,,,,
,,656f94ed904a54c0c02bdc2a,65af547f72f417c9b9fa8802,2024-01-23_06h54.59.061,bars,2023.2.3,Win32,15.55209953,657b66ea316d21385b68909f,,,,,,,,,,,1976.7364,1977.7298,,,1978.2101,1978.4758,,39,39,,,,,,,,,,,,,,,,bars/035.png,bars/mask006.png,,,,,,,,,,,,1,2,,,,,,,0,3,1,4,,,,,,,,,,,1977.7299,1978.21,1978.4759,1986.1564,space,7.6022,,1986.1564,44,21,1987.0922,1987.0923,1987.0927,,,,0,4,4,4,1,175,60,,,,,,,,
,,656f94ed904a54c0c02bdc2a,65af547f72f417c9b9fa8802,2024-01-23_06h54.59.061,bars,2023.2.3,Win32,15.55209953,657b66ea316d21385b68909f,,,,,,,,,,,1987.0929,1988.1065,,,1988.5491,1988.809,,9,189,,,,,,,,,,,,,,,,bars/014.png,bars/mask009.png,,,,,,,,,,,,1,2,,,,,,,0,5,0,2,,,,,,,,,,,1988.1066,1988.549,1988.809,2000.2455,space,11.3534,,2000.2455,71,9,2001.2367,2001.2367,2001.2419,,,,0,5,5,5,1,80,0,,,,,,,,
,,656f94ed904a54c0c02bdc2a,65af547f72f417c9b9fa8802,2024-01-23_06h54.59.061,bars,2023.2.3,Win32,15.55209953,657b66ea316d21385b68909f,,,,,,,,,,,2001.242,2002.2324,,,2002.678,2002.9343,,118,118,,,,,,,,,,,,,,,,bars/037.png,bars/mask002.png,,,,,,,,,,,,3,2,,,,,,,2,7,3,6,,,,,,,,,,,2002.2325,2002.678,2002.9343,2008.8294,space,5.822,,2008.8295,32,13,2009.822,2009.822,2009.8273,,,,0,6,6,6,1,150,105,,,,,,,,
,,656f94ed904a54c0c02bdc2a,65af547f72f417c9b9fa8802,2024-01-23_06h54.59.061,bars,2023.2.3,Win32,15.55209953,657b66ea316d21385b68909f,,,,,,,,,,,2009.8273,2010.8127,,,2011.3272,2011.595,,34,34,,,,,,,,,,,,,,,,bars/031.png,bars/mask007.png,,,,,,,,,,,,9,2,,,,,,,0,9,0,9,,,,,,,,,,,2010.8128,2011.3272,2011.5951,2013.1349,space,1.4563,,2013.1349,86,1,2014.1387,2014.1388,2014.1392,,,,0,7,7,7,1,120,35,,,,,,,,
,,656f94ed904a54c0c02bdc2a,65af547f72f417c9b9fa8802,2024-01-23_06h54.59.061,bars,2023.2.3,Win32,15.55209953,657b66ea316d21385b68909f,,,,,,,,,,,2014.1393,2015.1326,,,2015.6411,2015.909,,77,77,,,,,,,,,,,,,,,,bars/002.png,bars/mask009.png,,,,,,,,,,,,7,2,,,,,,,0,10,0,10,,,,,,,,,,,2015.1327,2015.6411,2015.9091,2020.8397,space,4.8579,,2020.8397,53,8,2021.8445,2021.8445,2021.8451,,,,0,8,8,8,1,130,85,,,,,,,,
,,656f94ed904a54c0c02bdc2a,65af547f72f417c9b9fa8802,2024-01-23_06h54.59.061,bars,2023.2.3,Win32,15.55209953,657b66ea316d21385b68909f,,,,,,,,,,,2021.8452,2022.85,,,2023.361,2023.6298,,56,56,,,,,,,,,,,,,,,,bars/017.png,bars/mask007.png,,,,,,,,,,,,6,2,,,,,,,2,10,2,10,,,,,,,,,,,2022.8501,2023.361,2023.6299,2029.3563,space,5.6496,,2029.3563,89,11,2030.3129,2030.3129,2030.3135,,,,0,9,9,9,1,145,45,,,,,,,,
,,656f94ed904a54c0c02bdc2a,65af547f72f417c9b9fa8802,2024-01-23_06h54.59.061,bars,2023.2.3,Win32,15.55209953,657b66ea316d21385b68909f,,,,,,,,,,,2030.3136,2031.3041,,,2031.7907,2032.0447,,163,163,,,,,,,,,,,,,,,,bars/012.png,bars/mask008.png,,,,,,,,,,,,0,2,,,,,,,4,10,4,10,,,,,,,,,,,2031.3041,2031.7907,2032.0447,2040.6053,space,8.476,,2040.6053,73,32,2041.5746,2041.5746,2041.5751,,,,0,10,10,10,1,90,15,,,,,,,,
,,656f94ed904a54c0c02bdc2a,65af547f72f417c9b9fa8802,2024-01-23_06h54.59.061,bars,2023.2.3,Win32,15.55209953,657b66ea316d21385b68909f,,,,,,,,,,,2041.5753,2042.5608,,,2043.0706,2043.3192,,66,246,,,,,,,,,,,,,,,,bars/001.png,bars/mask004.png,,,,,,,,,,,,4,2,,,,,,,2,10,0,10,,,,,,,,,,,2042.5609,2043.0706,2043.3193,2051.2693,space,7.8655,,2051.2693,64,19,2052.2351,2052.2351,2052.2356,,,,0,11,11,11,1,130,85,,,,,,,,
,,656f94ed904a54c0c02bdc2a,65af547f72f417c9b9fa8802,2024-01-23_06h54.59.061,bars,2023.2.3,Win32,15.55209953,657b66ea316d21385b68909f,,,,,,,,,,,2052.2358,2053.2267,,,2053.6916,2053.9652,,138,138,,,,,,,,,,,,,,,,bars/004.png,bars/mask003.png,,,,,,,,,,,,6,2,,,,,,,4,10,4,10,,,,,,,,,,,2053.2267,2053.6916,2053.9652,2055.7318,space,1.6822,,2055.7319,67,13,2056.7171,2056.7171,2056.7177,,,,0,12,12,12,1,25,125,,,,,,,,
,,656f94ed904a54c0c02bdc2a,65af547f72f417c9b9fa8802,2024-01-23_06h54.59.061,bars,2023.2.3,Win32,15.55209953,657b66ea316d21385b68909f,,,,,,,,,,,2056.7179,2057.7126,,,2058.2017,2058.4591,,146,-34,,,,,,,,,,,,,,,,bars/004.png,bars/mask002.png,,,,,,,,,,,,2,2,,,,,,,6,8,5,7,,,,,,,,,,,2057.7126,2058.2017,2058.4591,2066.1362,space,7.5892,,2066.1363,59,21,2067.1348,2067.1348,2067.1399,,,,0,13,13,13,1,25,125,,,,,,,,
,,656f94ed904a54c0c02bdc2a,65af547f72f417c9b9fa8802,2024-01-23_06h54.59.061,bars,2023.2.3,Win32,15.55209953,657b66ea316d21385b68909f,,,,,,,,,,,2067.1399,2068.1621,,,2068.6801,2068.9362,,57,57,,,,,,,,,,,,,,,,bars/047.png,bars/mask009.png,,,,,,,,,,,,6,2,,,,,,,4,10,4,10,,,,,,,,,,,2068.1622,2068.68,2068.9362,2073.0352,space,4.0218,,2073.0352,42,13,2073.9772,2073.9772,2073.9779,,,,0,14,14,14,1,15,70,,,,,,,,
,,656f94ed904a54c0c02bdc2a,65af547f72f417c9b9fa8802,2024-01-23_06h54.59.061,bars,2023.2.3,Win32,15.55209953,657b66ea316d21385b68909f,,,,,,,,,,,2073.9779,2074.9295,,,2075.3797,2075.5711,,135,135,,,,,,,,,,,,,,,,bars/005.png,bars/mask003.png,,,,,,,,,,,,8,2,,,,,,,2,10,2,10,,,,,,,,,,,2074.9295,2075.3797,2075.5711,2082.671,space,7.0127,,2082.671,55,5,2083.666,2083.6661,2083.6667,,,,0,15,15,15,1,10,140,,,,,,,,
,,656f94ed904a54c0c02bdc2a,65af547f72f417c9b9fa8802,2024-01-23_06h54.59.061,bars,2023.2.3,Win32,15.55209953,657b66ea316d21385b68909f,,,,,,,,,,,2083.6668,2084.6331,,,2085.1263,2085.3923,,68,68,,,,,,,,,,,,,,,,bars/041.png,bars/mask008.png,,,,,,,,,,,,3,2,,,,,,,4,10,5,8,,,,,,,,,,,2084.6331,2085.1263,2085.3924,2086.5066,space,1.0286,,2086.5066,48,17,2087.5063,2087.5063,2087.5068,,,,0,16,16,16,1,20,85,,,,,,,,
,,656f94ed904a54c0c02bdc2a,65af547f72f417c9b9fa8802,2024-01-23_06h54.59.061,bars,2023.2.3,Win32,15.55209953,657b66ea316d21385b68909f,,,,,,,,,,,2087.5069,2088.5161,,,2089.036,2089.2946,,75,75,,,,,,,,,,,,,,,,bars/011.png,bars/mask005.png,,,,,,,,,,,,6,2,,,,,,,6,10,9,9,,,,,,,,,,,2088.5161,2089.036,2089.2946,2095.7954,space,6.4129,,2095.7954,85,10,2096.797,2096.797,2096.7975,,,,0,17,17,17,1,160,85,,,,,,,,
,,656f94ed904a54c0c02bdc2a,65af547f72f417c9b9fa8802,2024-01-23_06h54.59.061,bars,2023.2.3,Win32,15.55209953,657b66ea316d21385b68909f,,,,,,,,,,,2096.7976,2097.7996,,,2098.3101,2098.5615,,71,71,,,,,,,,,,,,,,,,bars/001.png,bars/mask000.png,,,,,,,,,,,,5,2,,,,,,,8,8,7,9,,,,,,,,,,,2097.7997,2098.3101,2098.5616,2106.8074,space,8.1737,,2106.8074,59,14,2107.7618,2107.7618,2107.7623,,,,0,18,18,18,1,130,85,,,,,,,,
,,656f94ed904a54c0c02bdc2a,65af547f72f417c9b9fa8802,2024-01-23_06h54.59.061,bars,2023.2.3,Win32,15.55209953,657b66ea316d21385b68909f,,,,,,,,,,,2107.7625,2108.7495,,,2109.2415,2109.4236,,170,-10,,,,,,,,,,,,,,,,bars/032.png,bars/mask008.png,,,,,,,,,,,,0,2,,,,,,,6,10,7,9,,,,,,,,,,,2108.7495,2109.2414,2109.4237,2112.0768,space,2.5624,,2112.0768,45,30,2113.0704,2113.0704,2113.071,,,,0,19,19,19,1,125,20,,,,,,,,
,,656f94ed904a54c0c02bdc2a,65af547f72f417c9b9fa8802,2024-01-23_06h54.59.061,bars,2023.2.3,Win32,15.55209953,657b66ea316d21385b68909f,,,,,,,,,,,2113.0711,2114.0659,,,2114.5855,2114.8408,,55,55,,,,,,,,,,,,,,,,bars/010.png,bars/mask008.png,,,,,,,,,,,,9,2,,,,,,,4,8,4,9,,,,,,,,,,,2114.0659,2114.5855,2114.8409,2120.9337,space,6.011,,2120.9338,70,0,2121.947,2121.947,2121.9475,,,,0,20,20,20,1,165,55,,,,,,,,
,,656f94ed904a54c0c02bdc2a,65af547f72f417c9b9fa8802,2024-01-23_06h54.59.061,bars,2023.2.3,Win32,15.55209953,657b66ea316d21385b68909f,,,,,,,,,,,2121.9477,2122.9531,,,2123.3922,2123.6375,,60,60,,,,,,,,,,,,,,,,bars/047.png,bars/mask000.png,,,,,,,,,,,,7,2,,,,,,,2,10,3,10,,,,,,,,,,,2122.9531,2123.3921,2123.6375,2126.2836,space,2.5758,,2126.2836,45,10,2127.2995,2127.2995,2127.3,,,,0,21,21,21,1,15,70,,,,,,,,
,,656f94ed904a54c0c02bdc2a,65af547f72f417c9b9fa8802,2024-01-23_06h54.59.061,bars,2023.2.3,Win32,15.55209953,657b66ea316d21385b68909f,,,,,,,,,,,2127.3002,2128.2942,,,2128.8055,2129.0451,,56,236,,,,,,,,,,,,,,,,bars/047.png,bars/mask006.png,,,,,,,,,,,,5,2,,,,,,,4,10,4,9,,,,,,,,,,,2128.2942,2128.8055,2129.0451,2137.485,space,8.3657,,2137.485,41,14,2138.4251,2138.4251,2138.4301,,,,0,22,22,22,1,15,70,,,,,,,,
,,656f94ed904a54c0c02bdc2a,65af547f72f417c9b9fa8802,2024-01-23_06h54.59.061,bars,2023.2.3,Win32,15.55209953,657b66ea316d21385b68909f,,,,,,,,,,,2138.4302,2139.4114,,,2139.9253,2140.1831,,48,48,,,,,,,,,,,,,,,,bars/034.png,bars/mask007.png,,,,,,,,,,,,3,2,,,,,,,6,8,5,8,,,,,,,,,,,2139.4114,2139.9253,2140.1831,2141.1914,space,0.9245,,2141.1914,77,17,2142.1929,2142.1929,2142.1934,,,,0,23,23,23,1,125,65,,,,,,,,
,,656f94ed904a54c0c02bdc2a,65af547f72f417c9b9fa8802,2024-01-23_06h54.59.061,bars,2023.2.3,Win32,15.55209953,657b66ea316d21385b68909f,,,,,,,,,,,2142.1935,2143.1891,,,2143.6279,2143.8098,,174,-6,,,,,,,,,,,,,,,,bars/008.png,bars/mask006.png,,,,,,,,,,,,8,2,,,,,,,4,10,2,10,,,,,,,,,,,2143.1891,2143.6279,2143.8099,2148.2673,space,4.3778,,2148.2673,64,6,2149.2629,2149.263,2149.2637,,,,0,24,24,24,1,110,0,,,,,,,,
,,656f94ed904a54c0c02bdc2a,65af547f72f417c9b9fa8802,2024-01-23_06h54.59.061,bars,2023.2.3,Win32,15.55209953,657b66ea316d21385b68909f,,,,,,,,,,,2149.2637,2150.2639,,,2150.7618,2151.027,,173,173,,,,,,,,,,,,,,,,bars/033.png,bars/mask004.png,,,,,,,,,,,,4,2,,,,,,,2,8,2,9,,,,,,,,,,,2150.2639,2150.7618,2151.027,2158.1024,space,6.9976,,2158.1025,32,18,2159.1153,2159.1153,2159.1158,,,,0,25,25,25,1,25,155,,,,,,,,
,,656f94ed904a54c0c02bdc2a,65af547f72f417c9b9fa8802,2024-01-23_06h54.59.061,bars,2023.2.3,Win32,15.55209953,657b66ea316d21385b68909f,,,,,,,,,,,2159.1159,2160.0745,,,2160.591,2160.857,,85,85,,,,,,,,,,,,,,,,bars/021.png,bars/mask008.png,,,,,,,,,,,,5,2,,,,,,,4,10,4,10,,,,,,,,,,,2160.0746,2160.591,2160.857,2168.4065,space,7.4627,,2168.4066,70,15,2169.3832,2169.3832,2169.3838,,,,0,26,26,26,1,155,70,,,,,,,,
,,656f94ed904a54c0c02bdc2a,65af547f72f417c9b9fa8802,2024-01-23_06h54.59.061,bars,2023.2.3,Win32,15.55209953,657b66ea316d21385b68909f,,,,,,,,,,,2169.384,2170.3636,,,2170.8887,2171.0703,,117,-63,,,,,,,,,,,,,,,,bars/043.png,bars/mask008.png,,,,,,,,,,,,4,2,,,,,,,6,8,5,7,,,,,,,,,,,2170.3636,2170.8887,2171.0704,2178.4884,space,7.3337,,2178.4885,87,13,2179.4719,2179.4719,2179.4724,,,,0,27,27,27,1,30,130,,,,,,,,
,,656f94ed904a54c0c02bdc2a,65af547f72f417c9b9fa8802,2024-01-23_06h54.59.061,bars,2023.2.3,Win32,15.55209953,657b66ea316d21385b68909f,,,,,,,,,,,2179.4726,2180.453,,,2180.9736,2181.1589,,50,230,,,,,,,,,,,,,,,,bars/025.png,bars/mask002.png,,,,,,,,,,,,7,2,,,,,,,8,10,7,10,,,,,,,,,,,2180.453,2180.9736,2181.159,2189.5184,space,8.2804,,2189.5185,55,10,2190.5021,2190.5021,2190.5027,,,,0,28,28,28,1,105,40,,,,,,,,
,,656f94ed904a54c0c02bdc2a,65af547f72f417c9b9fa8802,2024-01-23_06h54.59.061,bars,2023.2.3,Win32,15.55209953,657b66ea316d21385b68909f,,,,,,,,,,,2190.5029,2191.5206,,,2192.019,2192.2694,,128,128,,,,,,,,,,,,,,,,bars/023.png,bars/mask005.png,,,,,,,,,,,,4,2,,,,,,,10,8,10,7,,,,,,,,,,,2191.5206,2192.019,2192.2695,2202.426,space,10.0715,,2202.4261,72,13,2203.3729,2203.373,2203.378,,,,0,29,29,29,1,20,115,,,,,,,,
,,656f94ed904a54c0c02bdc2a,65af547f72f417c9b9fa8802,2024-01-23_06h54.59.061,bars,2023.2.3,Win32,15.55209953,657b66ea316d21385b68909f,,,,,,,,,,,2203.3781,2204.3713,,,2204.8217,2205.0742,,60,60,,,,,,,,,,,,,,,,bars/041.png,bars/mask002.png,,,,,,,,,,,,1,2,,,,,,,8,6,8,7,,,,,,,,,,,2204.3713,2204.8217,2205.0742,2212.8366,space,7.6881,,2212.8366,40,25,2213.8347,2213.8347,2213.8353,,,,0,30,30,30,1,20,85,,,,,,,,
,,656f94ed904a54c0c02bdc2a,65af547f72f417c9b9fa8802,2024-01-23_06h54.59.061,bars,2023.2.3,Win32,15.55209953,657b66ea316d21385b68909f,,,,,,,,,,,2213.8355,2214.8146,,,2215.2463,2215.5095,,115,-65,,,,,,,,,,,,,,,,bars/019.png,bars/mask007.png,,,,,,,,,,,,3,2,,,,,,,10,4,10,5,,,,,,,,,,,2214.8146,2215.2462,2215.5095,2223.789,space,8.2066,,2223.789,70,10,2224.8012,2224.8012,2224.8067,,,,0,31,31,31,1,45,105,,,,,,,,
,,656f94ed904a54c0c02bdc2a,65af547f72f417c9b9fa8802,2024-01-23_06h54.59.061,bars,2023.2.3,Win32,15.55209953,657b66ea316d21385b68909f,,,,,,,,,,,2224.8068,2225.7831,,,2226.2919,2226.4773,,106,106,,,,,,,,,,,,,,,,bars/009.png,bars/mask003.png,,,,,,,,,,,,2,2,,,,,,,10,2,10,2,,,,,,,,,,,2225.7831,2226.2919,2226.4774,2231.932,space,5.3671,,2231.932,89,1,2232.9337,2232.9337,2232.9396,,,,0,32,32,32,1,15,105,,,,,,,,
,,656f94ed904a54c0c02bdc2a,65af547f72f417c9b9fa8802,2024-01-23_06h54.59.061,bars,2023.2.3,Win32,15.55209953,657b66ea316d21385b68909f,,,,,,,,,,,2232.9398,2233.9368,,,2234.3862,2234.6388,,157,-23,,,,,,,,,,,,,,,,bars/005.png,bars/mask004.png,,,,,,,,,,,,3,2,,,,,,,10,4,10,6,,,,,,,,,,,2233.9368,2234.3862,2234.6388,2238.1837,space,3.4659,,2238.1837,33,17,2239.1909,2239.1909,2239.1914,,,,0,33,33,33,1,10,140,,,,,,,,
,,656f94ed904a54c0c02bdc2a,65af547f72f417c9b9fa8802,2024-01-23_06h54.59.061,bars,2023.2.3,Win32,15.55209953,657b66ea316d21385b68909f,,,,,,,,,,,2239.1916,2240.1711,,,2240.6952,2240.9413,,82,82,,,,,,,,,,,,,,,,bars/011.png,bars/mask009.png,,,,,,,,,,,,6,2,,,,,,,8,6,6,7,,,,,,,,,,,2240.1711,2240.6952,2240.9413,2247.8868,space,6.8686,,2247.8868,78,3,2248.8765,2248.8765,2248.8771,,,,0,34,34,34,1,160,85,,,,,,,,
,,656f94ed904a54c0c02bdc2a,65af547f72f417c9b9fa8802,2024-01-23_06h54.59.061,bars,2023.2.3,Win32,15.55209953,657b66ea316d21385b68909f,,,,,,,,,,,2248.8773,2249.8937,,,2250.3377,2250.5948,,66,66,,,,,,,,,,,,,,,,bars/021.png,bars/mask001.png,,,,,,,,,,,,6,2,,,,,,,6,8,7,7,,,,,,,,,,,2249.8937,2250.3377,2250.5948,2254.5169,space,3.845,,2254.5169,89,4,2255.5123,2255.5123,2255.5129,,,,0,35,35,35,1,155,70,,,,,,,,
,,656f94ed904a54c0c02bdc2a,65af547f72f417c9b9fa8802,2024-01-23_06h54.59.061,bars,2023.2.3,Win32,15.55209953,657b66ea316d21385b68909f,,,,,,,,,,,2255.513,2256.5061,,,2257.012,2257.2648,,139,139,,,,,,,,,,,,,,,,bars/004.png,bars/mask006.png,,,,,,,,,,,,5,2,,,,,,,8,10,9,10,,,,,,,,,,,2256.5061,2257.012,2257.2648,2261.1282,space,3.7798,,2261.1282,66,14,2262.1046,2262.1046,2262.1051,,,,0,36,36,36,1,25,125,,,,,,,,
,,656f94ed904a54c0c02bdc2a,65af547f72f417c9b9fa8802,2024-01-23_06h54.59.061,bars,2023.2.3,Win32,15.55209953,657b66ea316d21385b68909f,,,,,,,,,,,2262.1052,2263.1015,,,2263.5968,2263.8629,,76,76,,,,,,,,,,,,,,,,bars/002.png,bars/mask001.png,,,,,,,,,,,,6,2,,,,,,,10,8,10,8,,,,,,,,,,,2263.1016,2263.5968,2263.8629,2270.2901,space,6.3385,,2270.2901,54,9,2271.231,2271.231,2271.2315,,,,0,37,37,37,1,130,85,,,,,,,,
,,656f94ed904a54c0c02bdc2a,65af547f72f417c9b9fa8802,2024-01-23_06h54.59.061,bars,2023.2.3,Win32,15.55209953,657b66ea316d21385b68909f,,,,,,,,,,,2271.2316,2272.2358,,,2272.7412,2272.9919,,154,154,,,,,,,,,,,,,,,,bars/005.png,bars/mask003.png,,,,,,,,,,,,5,2,,,,,,,8,10,9,10,,,,,,,,,,,2272.2358,2272.7411,2272.9919,2274.0036,space,0.94,,2274.0036,36,14,2274.9884,2274.9885,2274.9891,,,,0,38,38,38,1,10,140,,,,,,,,
,,656f94ed904a54c0c02bdc2a,65af547f72f417c9b9fa8802,2024-01-23_06h54.59.061,bars,2023.2.3,Win32,15.55209953,657b66ea316d21385b68909f,,,,,,,,,,,2274.9892,2275.9999,,,2276.5182,2276.6987,,100,-80,,,,,,,,,,,,,,,,bars/018.png,bars/mask007.png,,,,,,,,,,,,6,2,,,,,,,6,8,5,9,,,,,,,,,,,2276,2276.5182,2276.6988,2284.6989,space,7.9153,,2284.6989,50,10,2285.6941,2285.6941,2285.6946,,,,0,39,39,39,1,150,90,,,,,,,,
,,656f94ed904a54c0c02bdc2a,65af547f72f417c9b9fa8802,2024-01-23_06h54.59.061,bars,2023.2.3,Win32,15.55209953,657b66ea316d21385b68909f,,,,,,,,,,,2285.6948,2286.6868,,,2287.1842,2287.4346,,3,3,,,,,,,,,,,,,,,,bars/040.png,bars/mask000.png,,,,,,,,,,,,6,2,,,,,,,4,6,4,6,,,,,,,,,,,2286.6868,2287.1841,2287.4346,2290.5238,space,3.0036,,2290.5238,43,2,2291.5066,2291.5066,2291.5072,,,,0,40,40,40,1,140,5,,,,,,,,
,,656f94ed904a54c0c02bdc2a,65af547f72f417c9b9fa8802,2024-01-23_06h54.59.061,bars,2023.2.3,Win32,15.55209953,657b66ea316d21385b68909f,,,,,,,,,,,2291.5074,2292.4545,,,2292.9602,2293.2075,,62,62,,,,,,,,,,,,,,,,bars/026.png,bars/mask005.png,,,,,,,,,,,,2,2,,,,,,,2,8,2,8,,,,,,,,,,,2292.4546,2292.9602,2293.2075,2296.8362,space,3.5498,,2296.8362,27,23,2297.8485,2297.8485,2297.849,,,,0,41,41,41,1,35,85,,,,,,,,
,,656f94ed904a54c0c02bdc2a,65af547f72f417c9b9fa8802,2024-01-23_06h54.59.061,bars,2023.2.3,Win32,15.55209953,657b66ea316d21385b68909f,,,,,,,,,,,2297.8491,2298.8626,,,2299.2989,2299.5561,,16,196,,,,,,,,,,,,,,,,bars/045.png,bars/mask002.png,,,,,,,,,,,,8,2,,,,,,,4,10,2,10,,,,,,,,,,,2298.8626,2299.2988,2299.5561,2302.3871,space,2.7459,,2302.3871,84,6,2303.4117,2303.4117,2303.4122,,,,0,42,42,42,1,100,10,,,,,,,,
,,656f94ed904a54c0c02bdc2a,65af547f72f417c9b9fa8802,2024-01-23_06h54.59.061,bars,2023.2.3,Win32,15.55209953,657b66ea316d21385b68909f,,,,,,,,,,,2303.4123,2304.3526,,,2304.8729,2305.1283,,50,50,,,,,,,,,,,,,,,,bars/025.png,bars/mask006.png,,,,,,,,,,,,5,2,,,,,,,6,8,6,8,,,,,,,,,,,2304.3526,2304.8728,2305.1283,2306.5948,space,1.3843,,2306.5948,55,10,2307.5768,2307.5768,2307.5772,,,,0,43,43,43,1,105,40,,,,,,,,
,,656f94ed904a54c0c02bdc2a,65af547f72f417c9b9fa8802,2024-01-23_06h54.59.061,bars,2023.2.3,Win32,15.55209953,657b66ea316d21385b68909f,,,,,,,,,,,2307.5774,2308.5817,,,2309.0846,2309.3584,,104,284,,,,,,,,,,,,,,,,bars/002.png,bars/mask002.png,,,,,,,,,,,,4,2,,,,,,,4,10,5,10,,,,,,,,,,,2308.5818,2309.0846,2309.3585,2319.3625,space,9.9343,,2319.3625,26,19,2320.3698,2320.3698,2320.3703,,,,0,44,44,44,1,130,85,,,,,,,,
,,656f94ed904a54c0c02bdc2a,65af547f72f417c9b9fa8802,2024-01-23_06h54.59.061,bars,2023.2.3,Win32,15.55209953,657b66ea316d21385b68909f,,,,,,,,,,,2320.3704,2321.3544,,,2321.8712,2322.1275,,27,207,,,,,,,,,,,,,,,,bars/031.png,bars/mask008.png,,,,,,,,,,,,6,2,,,,,,,2,8,2,8,,,,,,,,,,,2321.3544,2321.8712,2322.1275,2326.624,space,4.4142,,2326.624,87,8,2327.6188,2327.6189,2327.6194,,,,0,45,45,45,1,120,35,,,,,,,,
,,656f94ed904a54c0c02bdc2a,65af547f72f417c9b9fa8802,2024-01-23_06h54.59.061,bars,2023.2.3,Win32,15.55209953,657b66ea316d21385b68909f,,,,,,,,,,,2327.6194,2328.6317,,,2329.0814,2329.332,,175,175,,,,,,,,,,,,,,,,bars/040.png,bars/mask002.png,,,,,,,,,,,,7,2,,,,,,,0,10,0,10,,,,,,,,,,,2328.6317,2329.0813,2329.3321,2330.5013,space,1.0814,,2330.5013,35,10,2331.4443,2331.4444,2331.4449,,,,0,46,46,46,1,140,5,,,,,,,,
,,656f94ed904a54c0c02bdc2a,65af547f72f417c9b9fa8802,2024-01-23_06h54.59.061,bars,2023.2.3,Win32,15.55209953,657b66ea316d21385b68909f,,,,,,,,,,,2331.445,2332.4494,,,2332.8952,2333.1372,,36,36,,,,,,,,,,,,,,,,bars/031.png,bars/mask008.png,,,,,,,,,,,,7,2,,,,,,,0,8,0,7,,,,,,,,,,,2332.4494,2332.8952,2333.1372,2335.5405,space,2.3183,,2335.5406,84,1,2336.5484,2336.5484,2336.5488,,,,0,47,47,47,1,120,35,,,,,,,,
,,656f94ed904a54c0c02bdc2a,65af547f72f417c9b9fa8802,2024-01-23_06h54.59.061,bars,2023.2.3,Win32,15.55209953,657b66ea316d21385b68909f,,,,,,,,,,,2336.549,2337.5437,,,2338.0409,2338.3052,,45,45,,,,,,,,,,,,,,,,bars/031.png,bars/mask008.png,,,,,,,,,,,,7,2,,,,,,,0,10,0,10,,,,,,,,,,,2337.5438,2338.0409,2338.3052,2339.3466,space,0.9595,,2339.3467,75,10,2340.341,2340.341,2340.3414,,,,0,48,48,48,1,120,35,,,,,,,,
,,656f94ed904a54c0c02bdc2a,65af547f72f417c9b9fa8802,2024-01-23_06h54.59.061,bars,2023.2.3,Win32,15.55209953,657b66ea316d21385b68909f,,,,,,,,,,,2340.3415,2341.3312,,,2341.8477,2342.0929,,137,-43,,,,,,,,,,,,,,,,bars/004.png,bars/mask006.png,,,,,,,,,,,,6,2,,,,,,,2,8,2,10,,,,,,,,,,,2341.3312,2341.8477,2342.093,2348.4019,space,6.2361,,2348.4019,68,12,2349.4165,2349.4165,2349.417,,,,0,49,49,49,1,25,125,,,,,,,,
,,656f94ed904a54c0c02bdc2a,65af547f72f417c9b9fa8802,2024-01-23_06h54.59.061,bars,2023.2.3,Win32,15.55209953,657b66ea316d21385b68909f,,,,,,,,,,,,,,,,,,,,,,,,,,,,,,,,,,,,,,,,,,,,,,,,,,,,,,,,,,,,,,,,,,,,,,,,,,,,,,,,,,,,,,,,,,,,,2349.4171,2409.4032,0,3,3,2,1,sequence_tables/blk037.csv
,,656f94ed904a54c0c02bdc2a,65af547f72f417c9b9fa8802,2024-01-23_06h54.59.061,bars,2023.2.3,Win32,15.55209953,657b66ea316d21385b68909f,,,,,,,,,,,2416.7716,2417.7704,,,2418.2706,2418.4574,,83,83,,,,,,,,,,,,,,,,bars/038.png,bars/mask000.png,,,,,,,,,,,,3,2,,,,,,,2,7,0,6,,,,,,2409.409,2416.7648,space,7.2797,,2417.7704,2418.2706,2418.4574,2422.3514,space,3.8221,,2422.3514,82,13,2423.3096,2423.3097,2423.3102,,,,0,0,0,0,1,165,70,,,,,,,,
,,656f94ed904a54c0c02bdc2a,65af547f72f417c9b9fa8802,2024-01-23_06h54.59.061,bars,2023.2.3,Win32,15.55209953,657b66ea316d21385b68909f,,,,,,,,,,,2423.3103,2424.2775,,,2424.713,2424.8986,,129,129,,,,,,,,,,,,,,,,bars/049.png,bars/mask005.png,,,,,,,,,,,,5,2,,,,,,,0,9,1,10,,,,,,,,,,,2424.2775,2424.713,2424.8986,2430.0922,space,5.1042,,2430.0922,31,14,2431.0818,2431.0818,2431.0823,,,,0,1,1,1,1,160,115,,,,,,,,
,,656f94ed904a54c0c02bdc2a,65af547f72f417c9b9fa8802,2024-01-23_06h54.59.061,bars,2023.2.3,Win32,15.55209953,657b66ea316d21385b68909f,,,,,,,,,,,2431.0825,2432.0654,,,2432.5062,2432.7462,,99,99,,,,,,,,,,,,,,,,bars/026.png,bars/mask009.png,,,,,,,,,,,,4,2,,,,,,,0,7,1,7,,,,,,,,,,,2432.0654,2432.5061,2432.7463,2441.1256,space,8.3033,,2441.1256,64,14,2442.1418,2442.1418,2442.1423,,,,0,2,2,2,1,35,85,,,,,,,,
,,656f94ed904a54c0c02bdc2a,65af547f72f417c9b9fa8802,2024-01-23_06h54.59.061,bars,2023.2.3,Win32,15.55209953,657b66ea316d21385b68909f,,,,,,,,,,,2442.1424,2443.1418,,,2443.653,2443.9084,,71,71,,,,,,,,,,,,,,,,bars/041.png,bars/mask009.png,,,,,,,,,,,,5,2,,,,,,,2,9,1,9,,,,,,,,,,,2443.1418,2443.653,2443.9085,2445.8153,space,1.8284,,2445.8153,51,14,2446.8044,2446.8044,2446.8049,,,,0,3,3,3,1,20,85,,,,,,,,
,,656f94ed904a54c0c02bdc2a,65af547f72f417c9b9fa8802,2024-01-23_06h54.59.061,bars,2023.2.3,Win32,15.55209953,657b66ea316d21385b68909f,,,,,,,,,,,2446.8051,2447.8044,,,2448.3151,2448.5713,,174,-6,,,,,,,,,,,,,,,,bars/024.png,bars/mask000.png,,,,,,,,,,,,9,2,,,,,,,4,10,4,10,,,,,,,,,,,2447.8044,2448.3151,2448.5713,2453.926,space,5.2746,,2453.926,54,4,2454.9252,2454.9252,2454.9257,,,,0,4,4,4,1,120,170,,,,,,,,
,,656f94ed904a54c0c02bdc2a,65af547f72f417c9b9fa8802,2024-01-23_06h54.59.061,bars,2023.2.3,Win32,15.55209953,657b66ea316d21385b68909f,,,,,,,,,,,2454.9259,2455.9478,,,2456.4601,2456.7096,,119,119,,,,,,,,,,,,,,,,bars/028.png,bars/mask003.png,,,,,,,,,,,,10,2,,,,,,,2,10,0,10,,,,,,,,,,,2455.9478,2456.46,2456.7096,2462.976,space,6.1766,,2462.976,74,1,2463.9198,2463.9199,2463.9204,,,,0,5,5,5,1,45,120,,,,,,,,
,,656f94ed904a54c0c02bdc2a,65af547f72f417c9b9fa8802,2024-01-23_06h54.59.061,bars,2023.2.3,Win32,15.55209953,657b66ea316d21385b68909f,,,,,,,,,,,2463.9205,2464.9233,,,2465.4335,2465.6932,,57,57,,,,,,,,,,,,,,,,bars/035.png,bars/mask007.png,,,,,,,,,,,,8,2,,,,,,,4,10,5,9,,,,,,,,,,,2464.9233,2465.4335,2465.6932,2473.326,space,7.5526,,2473.326,62,3,2474.3332,2474.3332,2474.3337,,,,0,6,6,6,1,175,60,,,,,,,,
,,656f94ed904a54c0c02bdc2a,65af547f72f417c9b9fa8802,2024-01-23_06h54.59.061,bars,2023.2.3,Win32,15.55209953,657b66ea316d21385b68909f,,,,,,,,,,,2474.3338,2475.3237,,,2475.7657,2476.0324,,50,230,,,,,,,,,,,,,,,,bars/038.png,bars/mask006.png,,,,,,,,,,,,3,2,,,,,,,2,8,2,8,,,,,,,,,,,2475.3238,2475.7656,2476.0324,2483.0644,space,6.9456,,2483.0645,65,20,2484.0705,2484.0705,2484.071,,,,0,7,7,7,1,165,70,,,,,,,,
,,656f94ed904a54c0c02bdc2a,65af547f72f417c9b9fa8802,2024-01-23_06h54.59.061,bars,2023.2.3,Win32,15.55209953,657b66ea316d21385b68909f,,,,,,,,,,,2484.0712,2485.0866,,,2485.5429,2485.7909,,22,22,,,,,,,,,,,,,,,,bars/029.png,bars/mask009.png,,,,,,,,,,,,2,2,,,,,,,0,10,0,10,,,,,,,,,,,2485.0866,2485.5428,2485.7909,2487.8461,space,1.982,,2487.8461,68,23,2488.8313,2488.8313,2488.8318,,,,0,8,8,8,1,90,45,,,,,,,,
,,656f94ed904a54c0c02bdc2a,65af547f72f417c9b9fa8802,2024-01-23_06h54.59.061,bars,2023.2.3,Win32,15.55209953,657b66ea316d21385b68909f,,,,,,,,,,,2488.8319,2489.8339,,,2490.3515,2490.6079,,150,-30,,,,,,,,,,,,,,,,bars/016.png,bars/mask005.png,,,,,,,,,,,,4,2,,,,,,,2,8,2,8,,,,,,,,,,,2489.834,2490.3515,2490.6079,2494.7715,space,4.0898,,2494.7716,70,15,2495.7747,2495.7747,2495.7752,,,,0,9,9,9,1,40,165,,,,,,,,
,,656f94ed904a54c0c02bdc2a,65af547f72f417c9b9fa8802,2024-01-23_06h54.59.061,bars,2023.2.3,Win32,15.55209953,657b66ea316d21385b68909f,,,,,,,,,,,2495.7753,2496.7735,,,2497.2841,2497.5163,,48,48,,,,,,,,,,,,,,,,bars/035.png,bars/mask003.png,,,,,,,,,,,,6,2,,,,,,,0,10,0,10,,,,,,,,,,,2496.7735,2497.2841,2497.5163,2500.1414,space,2.5476,,2500.1414,53,12,2501.1175,2501.1176,2501.118,,,,0,10,10,10,1,175,60,,,,,,,,
