init_variables.started,init_variables.stopped,participant,session,date,expName,psychopyVersion,OS,frameRate,study_id,instruction_exp.started,instruction_exp.stopped,key_resp_8.keys,key_resp_8.rt,key_resp_8.duration,instruction_single.started,instruction_single.stopped,key_resp_2.keys,key_resp_2.rt,key_resp_2.duration,interval.started,interval.stopped,cue_single.started,cue_single.stopped,mask.started,mask.stopped,ori_response_single.started,res_ori,res,ori_response_single.stopped,key_resp_single.keys,key_resp_single.rt,key_resp_single.duration,disp_single.started,disp_single.stopped,key_resp.keys,key_resp.rt,key_resp.duration,single.thisRepN,single.thisTrialN,single.thisN,single.thisIndex,single.ran,ori,path,mask_path,instruction_bandit.started,instruction_bandit.stopped,key_resp_6.keys,key_resp_6.rt,key_resp_6.duration,cue_bandit.started,cue_bandit.stopped,bandit_res.keys,bandit_res.rt,bandit_res.duration,outcome_bandit.started,rew,action,outcome_bandit.stopped,bandit.thisRepN,bandit.thisTrialN,bandit.thisN,bandit.thisIndex,bandit.ran,actual_rew1,actual_rew2,rew1,rew2,instruction_task.started,instruction_task.stopped,key_resp_7.keys,key_resp_7.rt,key_resp_7.duration,wait_ready.started,wait_ready.stopped,key_resp_3.keys,key_resp_3.rt,key_resp_3.duration,cue.started,cue.stopped,ori_response.started,ori_response.stopped,key_resp_5.keys,key_resp_5.rt,key_resp_5.duration,outcome.started,diff1,diff2,outcome.stopped,disp_outcome_practice.started,disp_outcome_practice.stopped,key_resp_4.keys,key_resp_4.rt,key_resp_4.duration,trials.thisRepN,trials.thisTrialN,trials.thisN,trials.thisIndex,trials.ran,ori1,ori2,break_blk.started,break_blk.stopped,block.thisRepN,block.thisTrialN,block.thisN,block.thisIndex,block.ran,condition_file
0.0002,0.0003,60dc4394e9e27efa6657582b,65af5573fa16a017ecb780ba,2024-01-23_07h59.08.416,bars,2023.2.3,Win32,60.24096386,657b66ea316d21385b68909f,,,,,,,,,,,,,,,,,,,,,,,,,,,,,,,,,,,,,,,,,,,,,,,,,,,,,,,,,,,,,,,,,,,,,,,,,,,,,,,,,,,,,,,,,,,,,,,,,,,,
,,60dc4394e9e27efa6657582b,65af5573fa16a017ecb780ba,2024-01-23_07h59.08.416,bars,2023.2.3,Win32,60.24096386,657b66ea316d21385b68909f,0.0004,9.8287,y,9.8105,,,,,,,,,,,,,,,,,,,,,,,,,,,,,,,,,,,,,,,,,,,,,,,,,,,,,,,,,,,,,,,,,,,,,,,,,,,,,,,,,,,,,,,,,,,,,,,,
,,60dc4394e9e27efa6657582b,65af5573fa16a017ecb780ba,2024-01-23_07h59.08.416,bars,2023.2.3,Win32,60.24096386,657b66ea316d21385b68909f,,,,,,9.8289,42.6824,space,32.8339,,,,,,,,,,,,,,,,,,,,,,,,,,,,,,,,,,,,,,,,,,,,,,,,,,,,,,,,,,,,,,,,,,,,,,,,,,,,,,,,,,,,,,,,,,,
,,60dc4394e9e27efa6657582b,65af5573fa16a017ecb780ba,2024-01-23_07h59.08.416,bars,2023.2.3,Win32,60.24096386,657b66ea316d21385b68909f,,,,,,,,,,,42.6855,43.6794,43.6797,44.1677,44.168,44.4174,44.4178,88,88,59.5977,space,15.1488,,59.5979,73.6477,space,14.0184,,0,0,0,2,1,145,bars/single002.png,bars/mask003.png,,,,,,,,,,,,,,,,,,,,,,,,,,,,,,,,,,,,,,,,,,,,,,,,,,,,,,,,,,,,,,,,
,,60dc4394e9e27efa6657582b,65af5573fa16a017ecb780ba,2024-01-23_07h59.08.416,bars,2023.2.3,Win32,60.24096386,657b66ea316d21385b68909f,,,,,,,,,,,73.6628,74.6633,74.6634,75.1634,75.1635,75.4137,75.4137,130,130,86.0469,space,10.6146,,86.047,88.6144,space,2.5462,,0,1,1,5,1,55,bars/single005.png,bars/mask008.png,,,,,,,,,,,,,,,,,,,,,,,,,,,,,,,,,,,,,,,,,,,,,,,,,,,,,,,,,,,,,,,,
,,60dc4394e9e27efa6657582b,65af5573fa16a017ecb780ba,2024-01-23_07h59.08.416,bars,2023.2.3,Win32,60.24096386,657b66ea316d21385b68909f,,,,,,,,,,,88.6152,89.6139,89.614,90.1144,90.1145,90.3645,90.3645,33,33,99.7818,space,9.4037,,99.7818,107.8318,space,8.0294,,0,2,2,4,1,95,bars/single004.png,bars/mask004.png,,,,,,,,,,,,,,,,,,,,,,,,,,,,,,,,,,,,,,,,,,,,,,,,,,,,,,,,,,,,,,,,
,,60dc4394e9e27efa6657582b,65af5573fa16a017ecb780ba,2024-01-23_07h59.08.416,bars,2023.2.3,Win32,60.24096386,657b66ea316d21385b68909f,,,,,,,,,,,107.8435,108.8319,108.8321,109.3324,109.3325,109.5825,109.5825,0,0,115.0317,space,5.4381,,115.0317,119.9991,space,4.9458,,0,3,3,9,1,20,bars/single009.png,bars/mask006.png,,,,,,,,,,,,,,,,,,,,,,,,,,,,,,,,,,,,,,,,,,,,,,,,,,,,,,,,,,,,,,,,
,,60dc4394e9e27efa6657582b,65af5573fa16a017ecb780ba,2024-01-23_07h59.08.416,bars,2023.2.3,Win32,60.24096386,657b66ea316d21385b68909f,,,,,,,,,,,120.0109,120.9993,120.9993,121.4994,121.4994,121.7495,121.7496,23,203,128.3828,space,6.624,,128.3828,130.1335,space,1.7303,,0,4,4,3,1,20,bars/single003.png,bars/mask005.png,,,,,,,,,,,,,,,,,,,,,,,,,,,,,,,,,,,,,,,,,,,,,,,,,,,,,,,,,,,,,,,,
,,60dc4394e9e27efa6657582b,65af5573fa16a017ecb780ba,2024-01-23_07h59.08.416,bars,2023.2.3,Win32,60.24096386,657b66ea316d21385b68909f,,,,,,,,,,,130.134,131.134,131.134,131.6334,131.6334,131.8837,131.8837,41,221,137.6673,space,5.773,,137.6673,139.7841,space,2.0915,,0,5,5,7,1,45,bars/single007.png,bars/mask009.png,,,,,,,,,,,,,,,,,,,,,,,,,,,,,,,,,,,,,,,,,,,,,,,,,,,,,,,,,,,,,,,,
,,60dc4394e9e27efa6657582b,65af5573fa16a017ecb780ba,2024-01-23_07h59.08.416,bars,2023.2.3,Win32,60.24096386,657b66ea316d21385b68909f,,,,,,,,,,,139.7848,140.7841,140.7841,141.284,141.284,141.5335,141.5336,26,206,147.5681,space,6.0185,,147.5682,150.7512,space,3.1535,,0,6,6,0,1,150,bars/single000.png,bars/mask006.png,,,,,,,,,,,,,,,,,,,,,,,,,,,,,,,,,,,,,,,,,,,,,,,,,,,,,,,,,,,,,,,,
,,60dc4394e9e27efa6657582b,65af5573fa16a017ecb780ba,2024-01-23_07h59.08.416,bars,2023.2.3,Win32,60.24096386,657b66ea316d21385b68909f,,,,,,,,,,,150.7661,151.768,151.768,152.2679,152.268,152.5181,152.5181,163,163,155.935,space,3.4006,,155.935,160.5851,space,4.6211,,0,7,7,1,1,20,bars/single001.png,bars/mask006.png,,,,,,,,,,,,,,,,,,,,,,,,,,,,,,,,,,,,,,,,,,,,,,,,,,,,,,,,,,,,,,,,
,,60dc4394e9e27efa6657582b,65af5573fa16a017ecb780ba,2024-01-23_07h59.08.416,bars,2023.2.3,Win32,60.24096386,657b66ea316d21385b68909f,,,,,,,,,,,160.597,161.5853,161.5853,162.0849,162.0849,162.3351,162.3352,9,189,166.2685,space,3.9197,,166.2686,168.5355,space,2.2413,,0,8,8,6,1,175,bars/single006.png,bars/mask005.png,,,,,,,,,,,,,,,,,,,,,,,,,,,,,,,,,,,,,,,,,,,,,,,,,,,,,,,,,,,,,,,,
,,60dc4394e9e27efa6657582b,65af5573fa16a017ecb780ba,2024-01-23_07h59.08.416,bars,2023.2.3,Win32,60.24096386,657b66ea316d21385b68909f,,,,,,,,,,,168.5479,169.5519,169.5521,170.0518,170.0518,170.2856,170.2857,155,155,172.702,space,2.4083,,172.702,175.5354,space,2.8151,,0,9,9,8,1,160,bars/single008.png,bars/mask004.png,,,,,,,,,,,,,,,,,,,,,,,,,,,,,,,,,,,,,,,,,,,,,,,,,,,,,,,,,,,,,,,,
,,60dc4394e9e27efa6657582b,65af5573fa16a017ecb780ba,2024-01-23_07h59.08.416,bars,2023.2.3,Win32,60.24096386,657b66ea316d21385b68909f,,,,,,,,,,,,,,,,,,,,,,,,,,,,,,,,,,,,,175.5362,209.9888,space,34.4373,,,,,,,,,,,,,,,,,,,,,,,,,,,,,,,,,,,,,,,,,,,,,,,,,,,,,,,,,,,,
,,60dc4394e9e27efa6657582b,65af5573fa16a017ecb780ba,2024-01-23_07h59.08.416,bars,2023.2.3,Win32,60.24096386,657b66ea316d21385b68909f,,,,,,,,,,,,,,,,,,,,,,,,,,,,,,,,,,,,,,,,,,210.0013,217.4725,left,7.4497,,217.4728,9,1,218.4719,0,0,0,0,1,9,1,9,2,,,,,,,,,,,,,,,,,,,,,,,,,,,,,,,,,,,,,,,,,
,,60dc4394e9e27efa6657582b,65af5573fa16a017ecb780ba,2024-01-23_07h59.08.416,bars,2023.2.3,Win32,60.24096386,657b66ea316d21385b68909f,,,,,,,,,,,,,,,,,,,,,,,,,,,,,,,,,,,,,,,,,,218.4726,220.8886,right,2.4007,,220.8888,1,2,221.8886,0,1,1,1,1,10,0,10,1,,,,,,,,,,,,,,,,,,,,,,,,,,,,,,,,,,,,,,,,,
,,60dc4394e9e27efa6657582b,65af5573fa16a017ecb780ba,2024-01-23_07h59.08.416,bars,2023.2.3,Win32,60.24096386,657b66ea316d21385b68909f,,,,,,,,,,,,,,,,,,,,,,,,,,,,,,,,,,,,,,,,,,221.8891,222.455,left,0.5556,,222.4551,10,1,223.4555,0,2,2,2,1,10,2,10,2,,,,,,,,,,,,,,,,,,,,,,,,,,,,,,,,,,,,,,,,,
,,60dc4394e9e27efa6657582b,65af5573fa16a017ecb780ba,2024-01-23_07h59.08.416,bars,2023.2.3,Win32,60.24096386,657b66ea316d21385b68909f,,,,,,,,,,,,,,,,,,,,,,,,,,,,,,,,,,,,,,,,,,223.456,223.8724,left,0.3997,,223.8725,7,1,224.8721,0,3,3,3,1,8,4,7,3,,,,,,,,,,,,,,,,,,,,,,,,,,,,,,,,,,,,,,,,,
,,60dc4394e9e27efa6657582b,65af5573fa16a017ecb780ba,2024-01-23_07h59.08.416,bars,2023.2.3,Win32,60.24096386,657b66ea316d21385b68909f,,,,,,,,,,,,,,,,,,,,,,,,,,,,,,,,,,,,,,,,,,224.8726,226.1054,left,1.2204,,226.1054,5,1,227.1053,0,4,4,4,1,6,2,5,1,,,,,,,,,,,,,,,,,,,,,,,,,,,,,,,,,,,,,,,,,
,,60dc4394e9e27efa6657582b,65af5573fa16a017ecb780ba,2024-01-23_07h59.08.416,bars,2023.2.3,Win32,60.24096386,657b66ea316d21385b68909f,,,,,,,,,,,,,,,,,,,,,,,,,,,,,,,,,,,,,,,,,,227.1055,227.7556,right,0.6342,,227.7559,4,2,228.7556,0,5,5,5,1,4,4,4,4,,,,,,,,,,,,,,,,,,,,,,,,,,,,,,,,,,,,,,,,,
,,60dc4394e9e27efa6657582b,65af5573fa16a017ecb780ba,2024-01-23_07h59.08.416,bars,2023.2.3,Win32,60.24096386,657b66ea316d21385b68909f,,,,,,,,,,,,,,,,,,,,,,,,,,,,,,,,,,,,,,,,,,228.7563,229.055,left,0.2902,,229.0551,1,1,230.0553,0,6,6,6,1,2,2,1,2,,,,,,,,,,,,,,,,,,,,,,,,,,,,,,,,,,,,,,,,,
,,60dc4394e9e27efa6657582b,65af5573fa16a017ecb780ba,2024-01-23_07h59.08.416,bars,2023.2.3,Win32,60.24096386,657b66ea316d21385b68909f,,,,,,,,,,,,,,,,,,,,,,,,,,,,,,,,,,,,,,,,,,230.0555,230.4721,right,0.4014,,230.4724,1,2,231.4722,0,7,7,7,1,0,0,0,1,,,,,,,,,,,,,,,,,,,,,,,,,,,,,,,,,,,,,,,,,
,,60dc4394e9e27efa6657582b,65af5573fa16a017ecb780ba,2024-01-23_07h59.08.416,bars,2023.2.3,Win32,60.24096386,657b66ea316d21385b68909f,,,,,,,,,,,,,,,,,,,,,,,,,,,,,,,,,,,,,,,,,,231.4727,231.9058,left,0.4173,,231.9058,1,1,232.9059,0,8,8,8,1,0,2,1,0,,,,,,,,,,,,,,,,,,,,,,,,,,,,,,,,,,,,,,,,,
,,60dc4394e9e27efa6657582b,65af5573fa16a017ecb780ba,2024-01-23_07h59.08.416,bars,2023.2.3,Win32,60.24096386,657b66ea316d21385b68909f,,,,,,,,,,,,,,,,,,,,,,,,,,,,,,,,,,,,,,,,,,232.9065,233.2393,left,0.3171,,233.2394,2,1,234.2393,0,9,9,9,1,2,4,2,3,,,,,,,,,,,,,,,,,,,,,,,,,,,,,,,,,,,,,,,,,
,,60dc4394e9e27efa6657582b,65af5573fa16a017ecb780ba,2024-01-23_07h59.08.416,bars,2023.2.3,Win32,60.24096386,657b66ea316d21385b68909f,,,,,,,,,,,,,,,,,,,,,,,,,,,,,,,,,,,,,,,,,,234.2398,234.4891,right,0.2322,,234.4891,3,2,235.4889,0,10,10,10,1,0,2,0,3,,,,,,,,,,,,,,,,,,,,,,,,,,,,,,,,,,,,,,,,,
,,60dc4394e9e27efa6657582b,65af5573fa16a017ecb780ba,2024-01-23_07h59.08.416,bars,2023.2.3,Win32,60.24096386,657b66ea316d21385b68909f,,,,,,,,,,,,,,,,,,,,,,,,,,,,,,,,,,,,,,,,,,235.4893,237.3727,left,1.8671,,237.3727,0,1,238.3727,0,11,11,11,1,0,4,0,3,,,,,,,,,,,,,,,,,,,,,,,,,,,,,,,,,,,,,,,,,
,,60dc4394e9e27efa6657582b,65af5573fa16a017ecb780ba,2024-01-23_07h59.08.416,bars,2023.2.3,Win32,60.24096386,657b66ea316d21385b68909f,,,,,,,,,,,,,,,,,,,,,,,,,,,,,,,,,,,,,,,,,,238.3859,238.9728,right,0.5802,,238.9729,6,2,239.9729,0,12,12,12,1,2,6,1,6,,,,,,,,,,,,,,,,,,,,,,,,,,,,,,,,,,,,,,,,,
,,60dc4394e9e27efa6657582b,65af5573fa16a017ecb780ba,2024-01-23_07h59.08.416,bars,2023.2.3,Win32,60.24096386,657b66ea316d21385b68909f,,,,,,,,,,,,,,,,,,,,,,,,,,,,,,,,,,,,,,,,,,239.9735,241.0724,right,1.081,,241.0724,3,2,242.0727,0,13,13,13,1,0,4,1,3,,,,,,,,,,,,,,,,,,,,,,,,,,,,,,,,,,,,,,,,,
,,60dc4394e9e27efa6657582b,65af5573fa16a017ecb780ba,2024-01-23_07h59.08.416,bars,2023.2.3,Win32,60.24096386,657b66ea316d21385b68909f,,,,,,,,,,,,,,,,,,,,,,,,,,,,,,,,,,,,,,,,,,242.0806,242.3397,left,0.2456,,242.3401,2,1,243.3399,0,14,14,14,1,2,6,2,7,,,,,,,,,,,,,,,,,,,,,,,,,,,,,,,,,,,,,,,,,
,,60dc4394e9e27efa6657582b,65af5573fa16a017ecb780ba,2024-01-23_07h59.08.416,bars,2023.2.3,Win32,60.24096386,657b66ea316d21385b68909f,,,,,,,,,,,,,,,,,,,,,,,,,,,,,,,,,,,,,,,,,,243.3404,243.6397,right,0.289,,243.6397,9,2,244.6396,0,15,15,15,1,4,8,3,9,,,,,,,,,,,,,,,,,,,,,,,,,,,,,,,,,,,,,,,,,
,,60dc4394e9e27efa6657582b,65af5573fa16a017ecb780ba,2024-01-23_07h59.08.416,bars,2023.2.3,Win32,60.24096386,657b66ea316d21385b68909f,,,,,,,,,,,,,,,,,,,,,,,,,,,,,,,,,,,,,,,,,,244.6399,245.2568,right,0.5999,,245.2569,7,2,246.2565,0,16,16,16,1,6,6,7,7,,,,,,,,,,,,,,,,,,,,,,,,,,,,,,,,,,,,,,,,,
,,60dc4394e9e27efa6657582b,65af5573fa16a017ecb780ba,2024-01-23_07h59.08.416,bars,2023.2.3,Win32,60.24096386,657b66ea316d21385b68909f,,,,,,,,,,,,,,,,,,,,,,,,,,,,,,,,,,,,,,,,,,246.2568,246.7399,right,0.4745,,246.74,5,2,247.7402,0,17,17,17,1,8,4,9,5,,,,,,,,,,,,,,,,,,,,,,,,,,,,,,,,,,,,,,,,,
,,60dc4394e9e27efa6657582b,65af5573fa16a017ecb780ba,2024-01-23_07h59.08.416,bars,2023.2.3,Win32,60.24096386,657b66ea316d21385b68909f,,,,,,,,,,,,,,,,,,,,,,,,,,,,,,,,,,,,,,,,,,247.7406,248.3068,right,0.5497,,248.3068,1,2,249.3067,0,18,18,18,1,6,2,5,1,,,,,,,,,,,,,,,,,,,,,,,,,,,,,,,,,,,,,,,,,
,,60dc4394e9e27efa6657582b,65af5573fa16a017ecb780ba,2024-01-23_07h59.08.416,bars,2023.2.3,Win32,60.24096386,657b66ea316d21385b68909f,,,,,,,,,,,,,,,,,,,,,,,,,,,,,,,,,,,,,,,,,,249.3072,249.5568,left,0.241,,249.5568,7,1,250.5569,0,19,19,19,1,8,0,7,0,,,,,,,,,,,,,,,,,,,,,,,,,,,,,,,,,,,,,,,,,
,,60dc4394e9e27efa6657582b,65af5573fa16a017ecb780ba,2024-01-23_07h59.08.416,bars,2023.2.3,Win32,60.24096386,657b66ea316d21385b68909f,,,,,,,,,,,,,,,,,,,,,,,,,,,,,,,,,,,,,,,,,,,,,,,,,,,,,,,,,,,,250.5581,262.2913,space,11.7154,,,,,,,,,,,,,,,,,,,,,,,,,,,,,,,,,,,,,
,,60dc4394e9e27efa6657582b,65af5573fa16a017ecb780ba,2024-01-23_07h59.08.416,bars,2023.2.3,Win32,60.24096386,657b66ea316d21385b68909f,,,,,,,,,,,263.6639,264.6573,,,265.1579,265.4075,,9,9,,,,,,,,,,,,,,,,bars/007.png,bars/mask006.png,,,,,,,,,,,,0,1,,,,,,,0,3,0,3,,,,,,262.3027,263.6583,space,1.339,,264.6577,265.1579,265.4078,272.4086,space,6.9807,,272.409,14,46,273.4083,273.4087,278.6416,space,5.2122,,0,0,0,0,1,175,55,,,,,,,,
,,60dc4394e9e27efa6657582b,65af5573fa16a017ecb780ba,2024-01-23_07h59.08.416,bars,2023.2.3,Win32,60.24096386,657b66ea316d21385b68909f,,,,,,,,,,,278.6512,279.6413,,,280.1417,280.3914,,50,50,,,,,,,,,,,,,,,,bars/028.png,bars/mask004.png,,,,,,,,,,,,0,1,,,,,,,2,5,0,6,,,,,,,,,,,279.6413,280.1416,280.3914,283.642,space,3.2351,,283.6421,5,70,284.6419,284.6421,296.7922,space,12.1296,,0,1,1,1,1,45,120,,,,,,,,
,,60dc4394e9e27efa6657582b,65af5573fa16a017ecb780ba,2024-01-23_07h59.08.416,bars,2023.2.3,Win32,60.24096386,657b66ea316d21385b68909f,,,,,,,,,,,296.8009,297.7929,,,298.2931,298.5429,,121,121,,,,,,,,,,,,,,,,bars/024.png,bars/mask003.png,,,,,,,,,,,,0,1,,,,,,,0,7,0,6,,,,,,,,,,,297.793,298.2931,298.5429,301.6437,space,3.0948,,301.6438,1,49,302.6432,302.6432,317.8601,space,15.1892,,0,2,2,2,1,120,170,,,,,,,,
,,60dc4394e9e27efa6657582b,65af5573fa16a017ecb780ba,2024-01-23_07h59.08.416,bars,2023.2.3,Win32,60.24096386,657b66ea316d21385b68909f,,,,,,,,,,,317.8677,318.8607,,,319.3604,319.6107,,68,68,,,,,,,,,,,,,,,,bars/026.png,bars/mask005.png,,,,,,,,,,,,2,2,,,,,,,2,5,2,5,,,,,,,,,,,318.8608,319.3604,319.6107,321.5609,space,1.9338,,321.561,33,17,322.561,322.561,325.2943,space,2.703,,0,3,3,3,1,35,85,,,,,,,,
,,60dc4394e9e27efa6657582b,65af5573fa16a017ecb780ba,2024-01-23_07h59.08.416,bars,2023.2.3,Win32,60.24096386,657b66ea316d21385b68909f,,,,,,,,,,,325.2946,326.2946,,,326.795,327.044,,124,124,,,,,,,,,,,,,,,,bars/005.png,bars/mask006.png,,,,,,,,,,,,3,2,,,,,,,0,7,0,7,,,,,,,,,,,326.2947,326.7949,327.0441,330.5616,space,3.5055,,330.5618,66,16,331.5614,331.5615,334.4115,space,2.8215,,0,4,4,4,1,10,140,,,,,,,,
,,60dc4394e9e27efa6657582b,65af5573fa16a017ecb780ba,2024-01-23_07h59.08.416,bars,2023.2.3,Win32,60.24096386,657b66ea316d21385b68909f,,,,,,,,,,,334.4226,335.4118,,,335.9115,336.1614,,68,68,,,,,,,,,,,,,,,,bars/029.png,bars/mask007.png,,,,,,,,,,,,1,1,,,,,,,2,5,3,5,,,,,,,,,,,335.4119,335.9114,336.1614,339.5955,space,3.4251,,339.5955,22,23,340.5952,340.5952,343.2623,space,2.6395,,0,5,5,5,1,90,45,,,,,,,,
,,60dc4394e9e27efa6657582b,65af5573fa16a017ecb780ba,2024-01-23_07h59.08.416,bars,2023.2.3,Win32,60.24096386,657b66ea316d21385b68909f,,,,,,,,,,,343.2631,344.262,,,344.7623,345.0123,,147,147,,,,,,,,,,,,,,,,bars/033.png,bars/mask003.png,,,,,,,,,,,,1,2,,,,,,,0,3,0,2,,,,,,,,,,,344.262,344.7623,345.0123,347.196,space,2.1747,,347.1961,58,8,348.1957,348.1957,350.7293,space,2.5085,,0,6,6,6,1,25,155,,,,,,,,
,,60dc4394e9e27efa6657582b,65af5573fa16a017ecb780ba,2024-01-23_07h59.08.416,bars,2023.2.3,Win32,60.24096386,657b66ea316d21385b68909f,,,,,,,,,,,350.73,351.7291,,,352.2291,352.4793,,109,109,,,,,,,,,,,,,,,,bars/028.png,bars/mask006.png,,,,,,,,,,,,3,2,,,,,,,2,5,3,5,,,,,,,,,,,351.7291,352.2291,352.4794,356.4798,space,3.991,,356.4799,64,11,357.4795,357.4796,359.4291,space,1.9206,,0,7,7,7,1,45,120,,,,,,,,
,,60dc4394e9e27efa6657582b,65af5573fa16a017ecb780ba,2024-01-23_07h59.08.416,bars,2023.2.3,Win32,60.24096386,657b66ea316d21385b68909f,,,,,,,,,,,359.4295,360.4298,,,360.9297,361.1799,,86,86,,,,,,,,,,,,,,,,bars/021.png,bars/mask005.png,,,,,,,,,,,,4,2,,,,,,,0,7,0,8,,,,,,,,,,,360.4298,360.9297,361.1799,363.38,space,2.1909,,363.3802,69,16,364.3803,364.3803,366.7469,space,2.3362,,0,8,8,8,1,155,70,,,,,,,,
,,60dc4394e9e27efa6657582b,65af5573fa16a017ecb780ba,2024-01-23_07h59.08.416,bars,2023.2.3,Win32,60.24096386,657b66ea316d21385b68909f,,,,,,,,,,,366.7477,367.7468,,,368.2468,368.497,,163,163,,,,,,,,,,,,,,,,bars/033.png,bars/mask003.png,,,,,,,,,,,,4,2,,,,,,,2,5,3,5,,,,,,,,,,,367.7469,368.2468,368.4971,372.2472,space,3.7334,,372.2473,42,8,373.2472,373.2473,374.5641,space,1.2953,,0,9,9,9,1,25,155,,,,,,,,
,,60dc4394e9e27efa6657582b,65af5573fa16a017ecb780ba,2024-01-23_07h59.08.416,bars,2023.2.3,Win32,60.24096386,657b66ea316d21385b68909f,,,,,,,,,,,374.5646,375.5641,,,376.0636,376.3141,,48,48,,,,,,,,,,,,,,,,bars/034.png,bars/mask002.png,,,,,,,,,,,,3,2,,,,,,,0,7,1,7,,,,,,,,,,,375.5641,376.0635,376.3141,380.3476,space,4.0172,,380.3476,77,17,381.3477,381.3478,385.7644,space,4.3867,,0,10,10,10,1,125,65,,,,,,,,
,,60dc4394e9e27efa6657582b,65af5573fa16a017ecb780ba,2024-01-23_07h59.08.416,bars,2023.2.3,Win32,60.24096386,657b66ea316d21385b68909f,,,,,,,,,,,385.7745,386.7646,,,387.2648,387.5145,,25,205,,,,,,,,,,,,,,,,bars/013.png,bars/mask001.png,,,,,,,,,,,,5,2,,,,,,,0,9,1,10,,,,,,,,,,,386.7647,387.2648,387.5146,394.0482,space,6.5185,,394.0482,50,15,395.0479,395.0479,396.7816,space,1.7147,,0,11,11,11,1,75,10,,,,,,,,
,,60dc4394e9e27efa6657582b,65af5573fa16a017ecb780ba,2024-01-23_07h59.08.416,bars,2023.2.3,Win32,60.24096386,657b66ea316d21385b68909f,,,,,,,,,,,396.7823,397.7818,,,398.2814,398.5318,,65,65,,,,,,,,,,,,,,,,bars/029.png,bars/mask007.png,,,,,,,,,,,,2,2,,,,,,,2,7,2,7,,,,,,,,,,,397.7818,398.2814,398.5319,403.9167,space,5.3792,,403.9168,25,20,404.9156,404.9157,407.0327,space,2.0889,,0,12,12,12,1,90,45,,,,,,,,
,,60dc4394e9e27efa6657582b,65af5573fa16a017ecb780ba,2024-01-23_07h59.08.416,bars,2023.2.3,Win32,60.24096386,657b66ea316d21385b68909f,,,,,,,,,,,407.0335,408.0326,,,408.5325,408.7827,,25,205,,,,,,,,,,,,,,,,bars/022.png,bars/mask002.png,,,,,,,,,,,,4,2,,,,,,,4,5,3,5,,,,,,,,,,,408.0326,408.5325,408.7828,413.2661,space,4.4667,,413.2662,70,5,414.2662,414.2662,416.1994,space,1.908,,0,13,13,13,1,95,20,,,,,,,,
,,60dc4394e9e27efa6657582b,65af5573fa16a017ecb780ba,2024-01-23_07h59.08.416,bars,2023.2.3,Win32,60.24096386,657b66ea316d21385b68909f,,,,,,,,,,,416.2001,417.1997,,,417.6997,417.9496,,120,120,,,,,,,,,,,,,,,,bars/046.png,bars/mask003.png,,,,,,,,,,,,0,2,,,,,,,2,3,1,3,,,,,,,,,,,417.1998,417.6997,417.9497,421.6167,space,3.653,,421.6168,35,35,422.6165,422.6165,424.667,space,2.0226,,0,14,14,14,1,155,85,,,,,,,,
,,60dc4394e9e27efa6657582b,65af5573fa16a017ecb780ba,2024-01-23_07h59.08.416,bars,2023.2.3,Win32,60.24096386,657b66ea316d21385b68909f,,,,,,,,,,,424.6674,425.6667,,,426.1669,426.4165,,76,76,,,,,,,,,,,,,,,,bars/035.png,bars/mask007.png,,,,,,,,,,,,1,2,,,,,,,4,1,3,3,,,,,,,,,,,425.6667,426.1668,426.4165,427.0004,space,0.5747,,427.0005,81,16,428.0002,428.0003,430.5006,space,2.4805,,0,15,15,15,1,175,60,,,,,,,,
,,60dc4394e9e27efa6657582b,65af5573fa16a017ecb780ba,2024-01-23_07h59.08.416,bars,2023.2.3,Win32,60.24096386,657b66ea316d21385b68909f,,,,,,,,,,,430.5011,431.4999,,,432.0004,432.2506,,156,156,,,,,,,,,,,,,,,,bars/044.png,bars/mask001.png,,,,,,,,,,,,0,2,,,,,,,6,0,5,0,,,,,,,,,,,431.4999,432.0004,432.2507,436.0176,space,3.7515,,436.0177,81,1,437.0176,437.0177,439.0839,space,2.0346,,0,16,16,16,1,75,155,,,,,,,,
,,60dc4394e9e27efa6657582b,65af5573fa16a017ecb780ba,2024-01-23_07h59.08.416,bars,2023.2.3,Win32,60.24096386,657b66ea316d21385b68909f,,,,,,,,,,,439.0842,440.0837,,,440.5841,440.8346,,23,23,,,,,,,,,,,,,,,,bars/029.png,bars/mask006.png,,,,,,,,,,,,1,2,,,,,,,4,2,5,2,,,,,,,,,,,440.0837,440.5841,440.8346,445.2349,space,4.3858,,445.235,67,22,446.2345,446.2346,447.8187,space,1.5564,,0,17,17,17,1,90,45,,,,,,,,
,,60dc4394e9e27efa6657582b,65af5573fa16a017ecb780ba,2024-01-23_07h59.08.416,bars,2023.2.3,Win32,60.24096386,657b66ea316d21385b68909f,,,,,,,,,,,447.8193,448.8182,,,449.3182,449.5681,,26,26,,,,,,,,,,,,,,,,bars/012.png,bars/mask009.png,,,,,,,,,,,,3,2,,,,,,,6,4,7,4,,,,,,,,,,,448.8183,449.3181,449.5681,455.4519,space,5.8722,,455.452,64,11,456.4518,456.4519,458.4521,space,1.9742,,0,18,18,18,1,90,15,,,,,,,,
,,60dc4394e9e27efa6657582b,65af5573fa16a017ecb780ba,2024-01-23_07h59.08.416,bars,2023.2.3,Win32,60.24096386,657b66ea316d21385b68909f,,,,,,,,,,,458.4527,459.4517,,,459.9522,460.2019,,114,114,,,,,,,,,,,,,,,,bars/001.png,bars/mask008.png,,,,,,,,,,,,3,1,,,,,,,4,2,6,3,,,,,,,,,,,459.4519,459.9522,460.202,465.5858,space,5.3699,,465.586,16,29,466.586,466.586,468.2201,space,1.6037,,0,19,19,19,1,130,85,,,,,,,,
,,60dc4394e9e27efa6657582b,65af5573fa16a017ecb780ba,2024-01-23_07h59.08.416,bars,2023.2.3,Win32,60.24096386,657b66ea316d21385b68909f,,,,,,,,,,,468.2207,469.2192,,,469.7193,469.9693,,148,148,,,,,,,,,,,,,,,,bars/048.png,bars/mask004.png,,,,,,,,,,,,0,2,,,,,,,6,4,8,4,,,,,,,,,,,469.2193,469.7193,469.9693,475.6866,space,5.7041,,475.6867,82,27,476.6863,476.6864,477.9367,space,1.2182,,0,20,20,20,1,50,175,,,,,,,,
,,60dc4394e9e27efa6657582b,65af5573fa16a017ecb780ba,2024-01-23_07h59.08.416,bars,2023.2.3,Win32,60.24096386,657b66ea316d21385b68909f,,,,,,,,,,,477.9373,478.9358,,,479.4369,479.6863,,40,40,,,,,,,,,,,,,,,,bars/021.png,bars/mask009.png,,,,,,,,,,,,0,2,,,,,,,8,6,9,6,,,,,,,,,,,478.9358,479.4368,479.6863,483.9202,space,4.2194,,483.9203,65,30,484.9201,484.9202,487.2204,space,2.2696,,0,21,21,21,1,155,70,,,,,,,,
,,60dc4394e9e27efa6657582b,65af5573fa16a017ecb780ba,2024-01-23_07h59.08.416,bars,2023.2.3,Win32,60.24096386,657b66ea316d21385b68909f,,,,,,,,,,,487.2323,488.2203,,,488.7204,488.9703,,153,-27,,,,,,,,,,,,,,,,bars/040.png,bars/mask006.png,,,,,,,,,,,,5,1,,,,,,,10,8,9,8,,,,,,,,,,,488.2203,488.7203,488.9704,494.2374,space,5.2582,,494.2374,13,32,495.2375,495.2375,496.7041,space,1.4433,,0,22,22,22,1,140,5,,,,,,,,
,,60dc4394e9e27efa6657582b,65af5573fa16a017ecb780ba,2024-01-23_07h59.08.416,bars,2023.2.3,Win32,60.24096386,657b66ea316d21385b68909f,,,,,,,,,,,496.7046,497.7044,,,498.2044,498.4541,,144,144,,,,,,,,,,,,,,,,bars/004.png,bars/mask003.png,,,,,,,,,,,,4,2,,,,,,,8,10,7,10,,,,,,,,,,,497.7044,498.2044,498.4541,502.9878,space,4.5244,,502.9878,61,19,503.9877,503.9877,505.2048,space,1.1931,,0,23,23,23,1,25,125,,,,,,,,
,,60dc4394e9e27efa6657582b,65af5573fa16a017ecb780ba,2024-01-23_07h59.08.416,bars,2023.2.3,Win32,60.24096386,657b66ea316d21385b68909f,,,,,,,,,,,505.2054,506.2046,,,506.7049,506.9547,,32,212,,,,,,,,,,,,,,,,bars/004.png,bars/mask007.png,,,,,,,,,,,,8,1,,,,,,,10,8,10,8,,,,,,,,,,,506.2046,506.7048,506.9549,512.2049,space,5.2353,,512.205,7,87,513.2052,513.2052,515.589,space,2.353,,0,24,24,24,1,25,125,,,,,,,,
,,60dc4394e9e27efa6657582b,65af5573fa16a017ecb780ba,2024-01-23_07h59.08.416,bars,2023.2.3,Win32,60.24096386,657b66ea316d21385b68909f,,,,,,,,,,,515.6017,516.6054,,,517.1051,517.3553,,44,44,,,,,,,,,,,,,,,,bars/029.png,bars/mask001.png,,,,,,,,,,,,6,2,,,,,,,8,6,10,6,,,,,,,,,,,516.6054,517.105,517.3554,520.5223,space,3.1533,,520.5223,46,1,521.5218,521.5218,524.5058,space,2.9564,,0,25,25,25,1,90,45,,,,,,,,
,,60dc4394e9e27efa6657582b,65af5573fa16a017ecb780ba,2024-01-23_07h59.08.416,bars,2023.2.3,Win32,60.24096386,657b66ea316d21385b68909f,,,,,,,,,,,524.5063,525.5056,,,526.0061,526.2557,,58,58,,,,,,,,,,,,,,,,bars/038.png,bars/mask005.png,,,,,,,,,,,,2,2,,,,,,,6,4,6,4,,,,,,,,,,,525.5057,526.0061,526.2557,529.7395,space,3.4703,,529.7395,73,12,530.7394,530.7395,533.0564,space,2.2914,,0,26,26,26,1,165,70,,,,,,,,
,,60dc4394e9e27efa6657582b,65af5573fa16a017ecb780ba,2024-01-23_07h59.08.416,bars,2023.2.3,Win32,60.24096386,657b66ea316d21385b68909f,,,,,,,,,,,533.0568,534.0559,,,534.5565,534.8062,,30,30,,,,,,,,,,,,,,,,bars/023.png,bars/mask001.png,,,,,,,,,,,,5,1,,,,,,,8,6,8,7,,,,,,,,,,,534.0559,534.5563,534.8062,538.2733,space,3.4603,,538.2733,10,85,539.2731,539.2731,541.6066,space,2.3029,,0,27,27,27,1,20,115,,,,,,,,
,,60dc4394e9e27efa6657582b,65af5573fa16a017ecb780ba,2024-01-23_07h59.08.416,bars,2023.2.3,Win32,60.24096386,657b66ea316d21385b68909f,,,,,,,,,,,541.614,542.6068,,,543.1065,543.3565,,130,130,,,,,,,,,,,,,,,,bars/036.png,bars/mask002.png,,,,,,,,,,,,4,1,,,,,,,6,8,8,10,,,,,,,,,,,542.6068,543.1064,543.3565,545.3069,space,1.9399,,545.3069,15,70,546.307,546.307,548.0733,space,1.7383,,0,28,28,28,1,145,20,,,,,,,,
,,60dc4394e9e27efa6657582b,65af5573fa16a017ecb780ba,2024-01-23_07h59.08.416,bars,2023.2.3,Win32,60.24096386,657b66ea316d21385b68909f,,,,,,,,,,,548.0735,549.0734,,,549.5736,549.8241,,68,68,,,,,,,,,,,,,,,,bars/022.png,bars/mask009.png,,,,,,,,,,,,1,1,,,,,,,8,6,7,6,,,,,,,,,,,549.0734,549.5736,549.8241,552.6571,space,2.8188,,552.6572,27,48,553.6573,553.6574,555.4408,space,1.7623,,0,29,29,29,1,95,20,,,,,,,,
,,60dc4394e9e27efa6657582b,65af5573fa16a017ecb780ba,2024-01-23_07h59.08.416,bars,2023.2.3,Win32,60.24096386,657b66ea316d21385b68909f,,,,,,,,,,,555.4412,556.441,,,556.9414,557.1909,,129,129,,,,,,,,,,,,,,,,bars/005.png,bars/mask008.png,,,,,,,,,,,,5,2,,,,,,,10,8,10,8,,,,,,,,,,,556.441,556.9413,557.1909,558.9915,space,1.7922,,558.9916,61,11,559.991,559.991,561.6576,space,1.6369,,0,30,30,30,1,10,140,,,,,,,,
,,60dc4394e9e27efa6657582b,65af5573fa16a017ecb780ba,2024-01-23_07h59.08.416,bars,2023.2.3,Win32,60.24096386,657b66ea316d21385b68909f,,,,,,,,,,,561.6581,562.6584,,,563.158,563.4078,,53,233,,,,,,,,,,,,,,,,bars/004.png,bars/mask009.png,,,,,,,,,,,,0,1,,,,,,,8,10,6,9,,,,,,,,,,,562.6585,563.1579,563.4079,567.1917,space,3.7661,,567.1919,28,72,568.1913,568.1914,569.5915,space,1.3698,,0,31,31,31,1,25,125,,,,,,,,
,,60dc4394e9e27efa6657582b,65af5573fa16a017ecb780ba,2024-01-23_07h59.08.416,bars,2023.2.3,Win32,60.24096386,657b66ea316d21385b68909f,,,,,,,,,,,569.5919,570.5916,,,571.0912,571.3418,,93,93,,,,,,,,,,,,,,,,bars/025.png,bars/mask006.png,,,,,,,,,,,,4,1,,,,,,,6,8,6,8,,,,,,,,,,,570.5917,571.0912,571.3418,573.3584,space,2.0038,,573.3584,12,53,574.3584,574.3584,575.8277,space,1.4529,,0,32,32,32,1,105,40,,,,,,,,
,,60dc4394e9e27efa6657582b,65af5573fa16a017ecb780ba,2024-01-23_07h59.08.416,bars,2023.2.3,Win32,60.24096386,657b66ea316d21385b68909f,,,,,,,,,,,575.8287,576.8248,,,577.3248,577.5755,,66,66,,,,,,,,,,,,,,,,bars/006.png,bars/mask006.png,,,,,,,,,,,,0,1,,,,,,,8,10,8,10,,,,,,,,,,,576.8248,577.3247,577.5755,582.6756,space,5.0857,,582.6756,31,34,583.6756,583.6757,584.3759,space,0.6711,,0,33,33,33,1,35,100,,,,,,,,
,,60dc4394e9e27efa6657582b,65af5573fa16a017ecb780ba,2024-01-23_07h59.08.416,bars,2023.2.3,Win32,60.24096386,657b66ea316d21385b68909f,,,,,,,,,,,584.3763,585.376,,,585.876,586.1259,,122,122,,,,,,,,,,,,,,,,bars/036.png,bars/mask000.png,,,,,,,,,,,,1,1,,,,,,,6,8,6,10,,,,,,,,,,,585.3761,585.876,586.1259,589.6762,space,3.5338,,589.6765,23,78,590.6762,590.6763,592.3763,space,1.6825,,0,34,34,34,1,145,20,,,,,,,,
,,60dc4394e9e27efa6657582b,65af5573fa16a017ecb780ba,2024-01-23_07h59.08.416,bars,2023.2.3,Win32,60.24096386,657b66ea316d21385b68909f,,,,,,,,,,,592.3767,593.3764,,,593.8763,594.1259,,136,136,,,,,,,,,,,,,,,,bars/036.png,bars/mask009.png,,,,,,,,,,,,3,1,,,,,,,4,6,4,6,,,,,,,,,,,593.3765,593.8762,594.126,595.6597,space,1.518,,595.6597,9,64,596.66,596.66,597.9265,space,1.2498,,0,35,35,35,1,145,20,,,,,,,,
,,60dc4394e9e27efa6657582b,65af5573fa16a017ecb780ba,2024-01-23_07h59.08.416,bars,2023.2.3,Win32,60.24096386,657b66ea316d21385b68909f,,,,,,,,,,,597.927,598.9266,,,599.4265,599.6767,,134,134,,,,,,,,,,,,,,,,bars/021.png,bars/mask000.png,,,,,,,,,,,,1,1,,,,,,,2,4,2,4,,,,,,,,,,,598.9266,599.4264,599.6768,604.9103,space,5.215,,604.9105,21,64,605.9102,605.9102,607.5773,space,1.643,,0,36,36,36,1,155,70,,,,,,,,
,,60dc4394e9e27efa6657582b,65af5573fa16a017ecb780ba,2024-01-23_07h59.08.416,bars,2023.2.3,Win32,60.24096386,657b66ea316d21385b68909f,,,,,,,,,,,607.5778,608.5768,,,609.0767,609.3269,,51,51,,,,,,,,,,,,,,,,bars/000.png,bars/mask002.png,,,,,,,,,,,,3,1,,,,,,,4,6,4,4,,,,,,,,,,,608.5768,609.0767,609.3269,614.5775,space,5.2419,,614.5775,11,86,615.5771,615.5773,616.5444,space,0.9362,,0,37,37,37,1,40,145,,,,,,,,
,,60dc4394e9e27efa6657582b,65af5573fa16a017ecb780ba,2024-01-23_07h59.08.416,bars,2023.2.3,Win32,60.24096386,657b66ea316d21385b68909f,,,,,,,,,,,616.5449,617.5443,,,618.0443,618.2945,,117,117,,,,,,,,,,,,,,,,bars/034.png,bars/mask003.png,,,,,,,,,,,,1,1,,,,,,,2,8,1,7,,,,,,,,,,,617.5444,618.0443,618.2945,621.4616,space,3.1587,,621.4618,8,52,622.4612,622.4612,623.728,space,1.2446,,0,38,38,38,1,125,65,,,,,,,,
,,60dc4394e9e27efa6657582b,65af5573fa16a017ecb780ba,2024-01-23_07h59.08.416,bars,2023.2.3,Win32,60.24096386,657b66ea316d21385b68909f,,,,,,,,,,,623.7284,624.728,,,625.2279,625.478,,22,202,,,,,,,,,,,,,,,,bars/005.png,bars/mask008.png,,,,,,,,,,,,3,1,,,,,,,4,10,5,10,,,,,,,,,,,624.728,625.2279,625.478,630.2781,space,4.7826,,630.2781,12,62,631.2786,631.2786,632.0949,space,0.796,,0,39,39,39,1,10,140,,,,,,,,
,,60dc4394e9e27efa6657582b,65af5573fa16a017ecb780ba,2024-01-23_07h59.08.416,bars,2023.2.3,Win32,60.24096386,657b66ea316d21385b68909f,,,,,,,,,,,632.0952,633.0947,,,633.5955,633.8453,,127,127,,,,,,,,,,,,,,,,bars/040.png,bars/mask006.png,,,,,,,,,,,,4,1,,,,,,,6,8,7,7,,,,,,,,,,,633.0948,633.5954,633.8453,636.9615,space,3.1027,,636.9616,13,58,637.9622,637.9622,639.1453,space,1.1563,,0,40,40,40,1,140,5,,,,,,,,
,,60dc4394e9e27efa6657582b,65af5573fa16a017ecb780ba,2024-01-23_07h59.08.416,bars,2023.2.3,Win32,60.24096386,657b66ea316d21385b68909f,,,,,,,,,,,639.1458,640.1453,,,640.6454,640.8955,,24,204,,,,,,,,,,,,,,,,bars/018.png,bars/mask002.png,,,,,,,,,,,,0,1,,,,,,,4,6,5,7,,,,,,,,,,,640.1454,640.6453,640.8956,647.246,space,6.3361,,647.2461,54,66,648.2462,648.2462,649.146,space,0.8721,,0,41,41,41,1,150,90,,,,,,,,
,,60dc4394e9e27efa6657582b,65af5573fa16a017ecb780ba,2024-01-23_07h59.08.416,bars,2023.2.3,Win32,60.24096386,657b66ea316d21385b68909f,,,,,,,,,,,649.1465,650.1459,,,650.6459,650.8963,,157,-23,,,,,,,,,,,,,,,,bars/035.png,bars/mask006.png,,,,,,,,,,,,2,1,,,,,,,6,8,6,9,,,,,,,,,,,650.146,650.6458,650.8963,655.096,space,4.1893,,655.096,18,83,656.0964,656.0964,657.4465,space,1.3314,,0,42,42,42,1,175,60,,,,,,,,
,,60dc4394e9e27efa6657582b,65af5573fa16a017ecb780ba,2024-01-23_07h59.08.416,bars,2023.2.3,Win32,60.24096386,657b66ea316d21385b68909f,,,,,,,,,,,657.4471,658.4467,,,658.9467,659.1965,,37,37,,,,,,,,,,,,,,,,bars/028.png,bars/mask004.png,,,,,,,,,,,,7,1,,,,,,,8,6,9,7,,,,,,,,,,,658.4467,658.9466,659.1965,663.447,space,4.2347,,663.447,8,83,664.4468,664.4469,665.4476,space,0.9725,,0,43,43,43,1,45,120,,,,,,,,
,,60dc4394e9e27efa6657582b,65af5573fa16a017ecb780ba,2024-01-23_07h59.08.416,bars,2023.2.3,Win32,60.24096386,657b66ea316d21385b68909f,,,,,,,,,,,665.448,666.4472,,,666.9473,667.1974,,29,29,,,,,,,,,,,,,,,,bars/023.png,bars/mask004.png,,,,,,,,,,,,4,1,,,,,,,6,8,5,10,,,,,,,,,,,666.4472,666.9472,667.1974,669.4805,space,2.2751,,669.4806,9,86,670.4803,670.4803,671.6975,space,1.1938,,0,44,44,44,1,20,115,,,,,,,,
,,60dc4394e9e27efa6657582b,65af5573fa16a017ecb780ba,2024-01-23_07h59.08.416,bars,2023.2.3,Win32,60.24096386,657b66ea316d21385b68909f,,,,,,,,,,,671.6986,672.6971,,,673.1975,673.4475,,139,139,,,,,,,,,,,,,,,,bars/032.png,bars/mask004.png,,,,,,,,,,,,2,1,,,,,,,4,10,4,9,,,,,,,,,,,672.6972,673.1974,673.4475,678.9312,space,5.4675,,678.9312,14,61,679.931,679.9311,681.181,space,1.2285,,0,45,45,45,1,125,20,,,,,,,,
,,60dc4394e9e27efa6657582b,65af5573fa16a017ecb780ba,2024-01-23_07h59.08.416,bars,2023.2.3,Win32,60.24096386,657b66ea316d21385b68909f,,,,,,,,,,,681.1813,682.1813,,,682.6812,682.9317,,179,-1,,,,,,,,,,,,,,,,bars/043.png,bars/mask004.png,,,,,,,,,,,,0,1,,,,,,,2,8,3,9,,,,,,,,,,,682.1813,682.6812,682.9317,686.8149,space,3.8726,,686.815,31,49,687.8147,687.8147,689.1316,space,1.2957,,0,46,46,46,1,30,130,,,,,,,,
,,60dc4394e9e27efa6657582b,65af5573fa16a017ecb780ba,2024-01-23_07h59.08.416,bars,2023.2.3,Win32,60.24096386,657b66ea316d21385b68909f,,,,,,,,,,,689.1317,690.1316,,,690.6317,690.8817,,32,32,,,,,,,,,,,,,,,,bars/016.png,bars/mask002.png,,,,,,,,,,,,3,1,,,,,,,4,6,4,9,,,,,,,,,,,690.1316,690.6316,690.8817,701.6995,space,10.8016,,701.6995,8,47,702.6988,702.6989,704.8664,space,2.1368,,0,47,47,47,1,40,165,,,,,,,,
,,60dc4394e9e27efa6657582b,65af5573fa16a017ecb780ba,2024-01-23_07h59.08.416,bars,2023.2.3,Win32,60.24096386,657b66ea316d21385b68909f,,,,,,,,,,,704.8669,705.8662,,,706.3664,706.6163,,125,125,,,,,,,,,,,,,,,,bars/034.png,bars/mask006.png,,,,,,,,,,,,1,1,,,,,,,2,8,1,7,,,,,,,,,,,705.8663,706.3663,706.6164,710.4829,space,3.8604,,710.483,0,60,711.4832,711.4832,712.8,space,1.2866,,0,48,48,48,1,125,65,,,,,,,,
,,60dc4394e9e27efa6657582b,65af5573fa16a017ecb780ba,2024-01-23_07h59.08.416,bars,2023.2.3,Win32,60.24096386,657b66ea316d21385b68909f,,,,,,,,,,,712.8006,713.7997,,,714.3,714.55,,26,26,,,,,,,,,,,,,,,,bars/047.png,bars/mask009.png,,,,,,,,,,,,0,1,,,,,,,0,6,0,6,,,,,,,,,,,713.7997,714.2999,714.5501,717.2502,space,2.684,,717.2502,11,44,718.2504,718.2504,718.9002,space,0.6177,,0,49,49,49,1,15,70,,,,,,,,
,,60dc4394e9e27efa6657582b,65af5573fa16a017ecb780ba,2024-01-23_07h59.08.416,bars,2023.2.3,Win32,60.24096386,657b66ea316d21385b68909f,,,,,,,,,,,,,,,,,,,,,,,,,,,,,,,,,,,,,,,,,,,,,,,,,,,,,,,,,,,,,,,,,,,,,,,,,,,,,,,,,,,,,,,,,,,,,718.9017,778.9042,0,0,0,3,1,sequence_tables/blk005.csv
,,60dc4394e9e27efa6657582b,65af5573fa16a017ecb780ba,2024-01-23_07h59.08.416,bars,2023.2.3,Win32,60.24096386,657b66ea316d21385b68909f,,,,,,,,,,,855.6387,856.6409,,,857.141,857.3749,,120,120,,,,,,,,,,,,,,,,bars/006.png,bars/mask006.png,,,,,,,,,,,,2,2,,,,,,,4,7,3,7,,,,,,778.9163,855.6246,space,76.6958,,856.6409,857.141,857.375,861.6249,space,4.2419,,861.6249,85,20,862.6252,862.6252,862.639,,,,0,0,0,0,1,35,100,,,,,,,,
,,60dc4394e9e27efa6657582b,65af5573fa16a017ecb780ba,2024-01-23_07h59.08.416,bars,2023.2.3,Win32,60.24096386,657b66ea316d21385b68909f,,,,,,,,,,,862.6392,863.6417,,,864.1421,864.3919,,48,48,,,,,,,,,,,,,,,,bars/026.png,bars/mask009.png,,,,,,,,,,,,4,1,,,,,,,6,5,7,5,,,,,,,,,,,863.6418,864.1419,864.3919,868.6252,space,4.2172,,868.6253,13,37,869.6256,869.6256,869.639,,,,0,1,1,1,1,35,85,,,,,,,,
,,60dc4394e9e27efa6657582b,65af5573fa16a017ecb780ba,2024-01-23_07h59.08.416,bars,2023.2.3,Win32,60.24096386,657b66ea316d21385b68909f,,,,,,,,,,,869.6392,870.6421,,,871.1419,871.3921,,150,-30,,,,,,,,,,,,,,,,bars/025.png,bars/mask000.png,,,,,,,,,,,,0,1,,,,,,,4,3,4,4,,,,,,,,,,,870.6421,871.1418,871.3921,876.2759,space,4.8684,,876.276,45,70,877.2756,877.2756,877.284,,,,0,2,2,2,1,105,40,,,,,,,,
,,60dc4394e9e27efa6657582b,65af5573fa16a017ecb780ba,2024-01-23_07h59.08.416,bars,2023.2.3,Win32,60.24096386,657b66ea316d21385b68909f,,,,,,,,,,,877.2841,878.2759,,,878.7759,879.026,,53,53,,,,,,,,,,,,,,,,bars/022.png,bars/mask001.png,,,,,,,,,,,,0,2,,,,,,,2,5,2,5,,,,,,,,,,,878.276,878.7758,879.0261,886.0925,space,7.0552,,886.0925,42,33,887.0925,887.0925,887.0999,,,,0,3,3,3,1,95,20,,,,,,,,
,,60dc4394e9e27efa6657582b,65af5573fa16a017ecb780ba,2024-01-23_07h59.08.416,bars,2023.2.3,Win32,60.24096386,657b66ea316d21385b68909f,,,,,,,,,,,887.1001,888.0927,,,888.5931,888.8431,,6,186,,,,,,,,,,,,,,,,bars/035.png,bars/mask006.png,,,,,,,,,,,,1,1,,,,,,,0,3,1,4,,,,,,,,,,,888.0927,888.5931,888.8431,891.627,space,2.7688,,891.627,11,54,892.6268,892.6268,892.643,,,,0,4,4,4,1,175,60,,,,,,,,
,,60dc4394e9e27efa6657582b,65af5573fa16a017ecb780ba,2024-01-23_07h59.08.416,bars,2023.2.3,Win32,60.24096386,657b66ea316d21385b68909f,,,,,,,,,,,892.643,893.6437,,,894.1435,894.3937,,25,25,,,,,,,,,,,,,,,,bars/014.png,bars/mask009.png,,,,,,,,,,,,0,2,,,,,,,0,5,0,2,,,,,,,,,,,893.6437,894.1435,894.3937,895.7605,space,1.3538,,895.7605,55,25,896.7601,896.7602,896.7635,,,,0,5,5,5,1,80,0,,,,,,,,
,,60dc4394e9e27efa6657582b,65af5573fa16a017ecb780ba,2024-01-23_07h59.08.416,bars,2023.2.3,Win32,60.24096386,657b66ea316d21385b68909f,,,,,,,,,,,896.7643,897.7605,,,898.2605,898.5106,,149,-31,,,,,,,,,,,,,,,,bars/037.png,bars/mask002.png,,,,,,,,,,,,3,1,,,,,,,2,7,3,6,,,,,,,,,,,897.7605,898.2604,898.5106,902.1605,space,3.6336,,902.1605,1,44,903.1602,903.1603,903.1724,,,,0,6,6,6,1,150,105,,,,,,,,
,,60dc4394e9e27efa6657582b,65af5573fa16a017ecb780ba,2024-01-23_07h59.08.416,bars,2023.2.3,Win32,60.24096386,657b66ea316d21385b68909f,,,,,,,,,,,903.1726,904.1605,,,904.6617,904.9106,,36,36,,,,,,,,,,,,,,,,bars/031.png,bars/mask007.png,,,,,,,,,,,,9,2,,,,,,,0,9,0,9,,,,,,,,,,,904.1606,904.6617,904.9106,906.4611,space,1.5344,,906.4612,84,1,907.4606,907.4607,907.4756,,,,0,7,7,7,1,120,35,,,,,,,,
,,60dc4394e9e27efa6657582b,65af5573fa16a017ecb780ba,2024-01-23_07h59.08.416,bars,2023.2.3,Win32,60.24096386,657b66ea316d21385b68909f,,,,,,,,,,,907.4758,908.4778,,,908.9777,909.2273,,144,-36,,,,,,,,,,,,,,,,bars/002.png,bars/mask009.png,,,,,,,,,,,,0,1,,,,,,,0,10,0,10,,,,,,,,,,,908.4779,908.9777,909.2273,916.4949,space,7.2517,,916.495,14,59,917.495,917.4951,917.5123,,,,0,8,8,8,1,130,85,,,,,,,,
,,60dc4394e9e27efa6657582b,65af5573fa16a017ecb780ba,2024-01-23_07h59.08.416,bars,2023.2.3,Win32,60.24096386,657b66ea316d21385b68909f,,,,,,,,,,,917.5125,918.5115,,,919.0116,919.2614,,138,-42,,,,,,,,,,,,,,,,bars/017.png,bars/mask007.png,,,,,,,,,,,,2,1,,,,,,,2,10,2,10,,,,,,,,,,,918.5115,919.0116,919.2615,923.2452,space,3.9754,,923.2452,7,87,924.245,924.245,924.2578,,,,0,9,9,9,1,145,45,,,,,,,,
,,60dc4394e9e27efa6657582b,65af5573fa16a017ecb780ba,2024-01-23_07h59.08.416,bars,2023.2.3,Win32,60.24096386,657b66ea316d21385b68909f,,,,,,,,,,,924.2581,925.2619,,,925.762,926.012,,55,55,,,,,,,,,,,,,,,,bars/012.png,bars/mask008.png,,,,,,,,,,,,0,1,,,,,,,4,10,4,10,,,,,,,,,,,925.262,925.7619,926.012,930.1118,space,4.0931,,930.1118,35,40,931.1117,931.1117,931.1175,,,,0,10,10,10,1,90,15,,,,,,,,
,,60dc4394e9e27efa6657582b,65af5573fa16a017ecb780ba,2024-01-23_07h59.08.416,bars,2023.2.3,Win32,60.24096386,657b66ea316d21385b68909f,,,,,,,,,,,931.1177,932.1116,,,932.6125,932.8622,,89,89,,,,,,,,,,,,,,,,bars/001.png,bars/mask004.png,,,,,,,,,,,,9,2,,,,,,,2,10,0,10,,,,,,,,,,,932.1117,932.6125,932.8623,936.2126,space,3.3391,,936.2127,41,4,937.2126,937.2126,937.2274,,,,0,11,11,11,1,130,85,,,,,,,,
,,60dc4394e9e27efa6657582b,65af5573fa16a017ecb780ba,2024-01-23_07h59.08.416,bars,2023.2.3,Win32,60.24096386,657b66ea316d21385b68909f,,,,,,,,,,,937.2276,938.2296,,,938.7293,938.9791,,116,116,,,,,,,,,,,,,,,,bars/004.png,bars/mask003.png,,,,,,,,,,,,7,2,,,,,,,4,10,4,10,,,,,,,,,,,938.2296,938.7292,938.9791,940.3793,space,1.39,,940.3794,89,9,941.3796,941.3797,941.3808,,,,0,12,12,12,1,25,125,,,,,,,,
,,60dc4394e9e27efa6657582b,65af5573fa16a017ecb780ba,2024-01-23_07h59.08.416,bars,2023.2.3,Win32,60.24096386,657b66ea316d21385b68909f,,,,,,,,,,,941.3812,942.3797,,,942.8795,943.1291,,143,143,,,,,,,,,,,,,,,,bars/004.png,bars/mask002.png,,,,,,,,,,,,3,2,,,,,,,6,8,5,7,,,,,,,,,,,942.3797,942.8795,943.1291,945.0961,space,1.9523,,945.0962,62,18,946.0961,946.0961,946.1073,,,,0,13,13,13,1,25,125,,,,,,,,
,,60dc4394e9e27efa6657582b,65af5573fa16a017ecb780ba,2024-01-23_07h59.08.416,bars,2023.2.3,Win32,60.24096386,657b66ea316d21385b68909f,,,,,,,,,,,946.1075,947.0962,,,947.5963,947.8466,,60,60,,,,,,,,,,,,,,,,bars/047.png,bars/mask009.png,,,,,,,,,,,,7,2,,,,,,,4,10,4,10,,,,,,,,,,,947.0963,947.5963,947.8467,950.5313,space,2.6736,,950.5313,45,10,951.5296,951.5297,951.5302,,,,0,14,14,14,1,15,70,,,,,,,,
,,60dc4394e9e27efa6657582b,65af5573fa16a017ecb780ba,2024-01-23_07h59.08.416,bars,2023.2.3,Win32,60.24096386,657b66ea316d21385b68909f,,,,,,,,,,,951.5303,952.5301,,,953.0301,953.2803,,58,58,,,,,,,,,,,,,,,,bars/005.png,bars/mask003.png,,,,,,,,,,,,0,1,,,,,,,2,10,2,10,,,,,,,,,,,952.5301,953.0301,953.2804,957.5136,space,4.217,,957.5136,48,82,958.5137,958.5137,958.5291,,,,0,15,15,15,1,10,140,,,,,,,,
,,60dc4394e9e27efa6657582b,65af5573fa16a017ecb780ba,2024-01-23_07h59.08.416,bars,2023.2.3,Win32,60.24096386,657b66ea316d21385b68909f,,,,,,,,,,,958.5293,959.5304,,,960.0303,960.28,,54,54,,,,,,,,,,,,,,,,bars/041.png,bars/mask008.png,,,,,,,,,,,,0,2,,,,,,,4,10,5,8,,,,,,,,,,,959.5304,960.0302,960.28,965.4141,space,5.1244,,965.4142,34,31,966.4144,966.4144,966.4281,,,,0,16,16,16,1,20,85,,,,,,,,
,,60dc4394e9e27efa6657582b,65af5573fa16a017ecb780ba,2024-01-23_07h59.08.416,bars,2023.2.3,Win32,60.24096386,657b66ea316d21385b68909f,,,,,,,,,,,966.4283,967.4307,,,967.9314,968.1808,,76,76,,,,,,,,,,,,,,,,bars/011.png,bars/mask005.png,,,,,,,,,,,,6,2,,,,,,,6,10,9,9,,,,,,,,,,,967.4308,967.9313,968.1808,970.4811,space,2.2843,,970.4811,84,9,971.4813,971.4814,971.4825,,,,0,17,17,17,1,160,85,,,,,,,,
,,60dc4394e9e27efa6657582b,65af5573fa16a017ecb780ba,2024-01-23_07h59.08.416,bars,2023.2.3,Win32,60.24096386,657b66ea316d21385b68909f,,,,,,,,,,,971.4829,972.4811,,,972.9813,973.2312,,74,74,,,,,,,,,,,,,,,,bars/001.png,bars/mask000.png,,,,,,,,,,,,6,2,,,,,,,8,8,7,9,,,,,,,,,,,972.4811,972.9813,973.2313,976.131,space,2.8933,,976.131,56,11,977.131,977.1311,977.1384,,,,0,18,18,18,1,130,85,,,,,,,,
,,60dc4394e9e27efa6657582b,65af5573fa16a017ecb780ba,2024-01-23_07h59.08.416,bars,2023.2.3,Win32,60.24096386,657b66ea316d21385b68909f,,,,,,,,,,,977.1387,978.131,,,978.632,978.8813,,144,144,,,,,,,,,,,,,,,,bars/032.png,bars/mask008.png,,,,,,,,,,,,3,1,,,,,,,6,10,7,9,,,,,,,,,,,978.131,978.6319,978.8813,985.4156,space,6.5237,,985.4157,19,56,986.4155,986.4155,986.4304,,,,0,19,19,19,1,125,20,,,,,,,,
,,60dc4394e9e27efa6657582b,65af5573fa16a017ecb780ba,2024-01-23_07h59.08.416,bars,2023.2.3,Win32,60.24096386,657b66ea316d21385b68909f,,,,,,,,,,,986.4306,987.4322,,,987.9318,988.1817,,47,47,,,,,,,,,,,,,,,,bars/010.png,bars/mask008.png,,,,,,,,,,,,7,2,,,,,,,4,8,4,9,,,,,,,,,,,987.4323,987.9318,988.1817,995.0322,space,6.8424,,995.0323,62,8,996.032,996.032,996.0418,,,,0,20,20,20,1,165,55,,,,,,,,
,,60dc4394e9e27efa6657582b,65af5573fa16a017ecb780ba,2024-01-23_07h59.08.416,bars,2023.2.3,Win32,60.24096386,657b66ea316d21385b68909f,,,,,,,,,,,996.0419,997.0321,,,997.5331,997.7828,,53,233,,,,,,,,,,,,,,,,bars/047.png,bars/mask000.png,,,,,,,,,,,,4,2,,,,,,,2,10,3,10,,,,,,,,,,,997.0322,997.5331,997.7829,1000.633,space,2.8364,,1000.6332,38,17,1001.6331,1001.6331,1001.6455,,,,0,21,21,21,1,15,70,,,,,,,,
,,60dc4394e9e27efa6657582b,65af5573fa16a017ecb780ba,2024-01-23_07h59.08.416,bars,2023.2.3,Win32,60.24096386,657b66ea316d21385b68909f,,,,,,,,,,,1001.6456,1002.6497,,,1003.149,1003.3999,,66,66,,,,,,,,,,,,,,,,bars/047.png,bars/mask006.png,,,,,,,,,,,,8,2,,,,,,,4,10,4,9,,,,,,,,,,,1002.6497,1003.149,1003.3999,1007.0001,space,3.5849,,1007.0002,51,4,1008.0001,1008.0002,1008.0135,,,,0,22,22,22,1,15,70,,,,,,,,
,,60dc4394e9e27efa6657582b,65af5573fa16a017ecb780ba,2024-01-23_07h59.08.416,bars,2023.2.3,Win32,60.24096386,657b66ea316d21385b68909f,,,,,,,,,,,1008.0136,1009.0171,,,1009.517,1009.7663,,111,111,,,,,,,,,,,,,,,,bars/034.png,bars/mask007.png,,,,,,,,,,,,3,1,,,,,,,6,8,5,8,,,,,,,,,,,1009.0171,1009.5169,1009.7664,1012.6836,space,2.9074,,1012.6836,14,46,1013.6837,1013.6837,1013.698,,,,0,23,23,23,1,125,65,,,,,,,,
,,60dc4394e9e27efa6657582b,65af5573fa16a017ecb780ba,2024-01-23_07h59.08.416,bars,2023.2.3,Win32,60.24096386,657b66ea316d21385b68909f,,,,,,,,,,,1013.6982,1014.7004,,,1015.2006,1015.4505,,154,154,,,,,,,,,,,,,,,,bars/008.png,bars/mask006.png,,,,,,,,,,,,1,2,,,,,,,4,10,2,10,,,,,,,,,,,1014.7004,1015.2005,1015.4505,1018.9505,space,3.4888,,1018.9506,44,26,1019.9506,1019.9506,1019.9624,,,,0,24,24,24,1,110,0,,,,,,,,
,,60dc4394e9e27efa6657582b,65af5573fa16a017ecb780ba,2024-01-23_07h59.08.416,bars,2023.2.3,Win32,60.24096386,657b66ea316d21385b68909f,,,,,,,,,,,1019.9625,1020.9673,,,1021.4673,1021.7171,,149,149,,,,,,,,,,,,,,,,bars/033.png,bars/mask004.png,,,,,,,,,,,,7,2,,,,,,,2,8,2,9,,,,,,,,,,,1020.9673,1021.4673,1021.7171,1023.951,space,2.2204,,1023.9511,56,6,1024.9508,1024.9509,1024.9655,,,,0,25,25,25,1,25,155,,,,,,,,
,,60dc4394e9e27efa6657582b,65af5573fa16a017ecb780ba,2024-01-23_07h59.08.416,bars,2023.2.3,Win32,60.24096386,657b66ea316d21385b68909f,,,,,,,,,,,1024.9657,1025.9679,,,1026.468,1026.7178,,79,79,,,,,,,,,,,,,,,,bars/021.png,bars/mask008.png,,,,,,,,,,,,7,2,,,,,,,4,10,4,10,,,,,,,,,,,1025.9679,1026.468,1026.7179,1030.5847,space,3.8514,,1030.5848,76,9,1031.5846,1031.5846,1031.5971,,,,0,26,26,26,1,155,70,,,,,,,,
,,60dc4394e9e27efa6657582b,65af5573fa16a017ecb780ba,2024-01-23_07h59.08.416,bars,2023.2.3,Win32,60.24096386,657b66ea316d21385b68909f,,,,,,,,,,,1031.5973,1032.585,,,1033.0841,1033.3351,,54,54,,,,,,,,,,,,,,,,bars/043.png,bars/mask008.png,,,,,,,,,,,,1,1,,,,,,,6,8,5,7,,,,,,,,,,,1032.585,1033.0841,1033.3351,1035.7515,space,2.4003,,1035.7515,24,76,1036.7515,1036.7515,1036.7655,,,,0,27,27,27,1,30,130,,,,,,,,
,,60dc4394e9e27efa6657582b,65af5573fa16a017ecb780ba,2024-01-23_07h59.08.416,bars,2023.2.3,Win32,60.24096386,657b66ea316d21385b68909f,,,,,,,,,,,1036.7656,1037.769,,,1038.2683,1038.5185,,85,85,,,,,,,,,,,,,,,,bars/025.png,bars/mask002.png,,,,,,,,,,,,2,1,,,,,,,8,10,7,10,,,,,,,,,,,1037.7691,1038.2682,1038.5186,1043.0518,space,4.5251,,1043.0518,20,45,1044.0519,1044.0519,1044.0642,,,,0,28,28,28,1,105,40,,,,,,,,
,,60dc4394e9e27efa6657582b,65af5573fa16a017ecb780ba,2024-01-23_07h59.08.416,bars,2023.2.3,Win32,60.24096386,657b66ea316d21385b68909f,,,,,,,,,,,1044.0644,1045.0521,,,1045.5524,1045.8018,,15,195,,,,,,,,,,,,,,,,bars/023.png,bars/mask005.png,,,,,,,,,,,,8,1,,,,,,,10,8,10,7,,,,,,,,,,,1045.0523,1045.5523,1045.8018,1050.3024,space,4.4828,,1050.3025,5,80,1051.3024,1051.3024,1051.3153,,,,0,29,29,29,1,20,115,,,,,,,,
,,60dc4394e9e27efa6657582b,65af5573fa16a017ecb780ba,2024-01-23_07h59.08.416,bars,2023.2.3,Win32,60.24096386,657b66ea316d21385b68909f,,,,,,,,,,,1051.3154,1052.3187,,,1052.8193,1053.0692,,167,-13,,,,,,,,,,,,,,,,bars/041.png,bars/mask002.png,,,,,,,,,,,,0,1,,,,,,,8,6,8,7,,,,,,,,,,,1052.3187,1052.8193,1053.0692,1058.2197,space,5.1348,,1058.2197,33,82,1059.2196,1059.2196,1059.2335,,,,0,30,30,30,1,20,85,,,,,,,,
,,60dc4394e9e27efa6657582b,65af5573fa16a017ecb780ba,2024-01-23_07h59.08.416,bars,2023.2.3,Win32,60.24096386,657b66ea316d21385b68909f,,,,,,,,,,,1059.2337,1060.2365,,,1060.7373,1060.9866,,53,53,,,,,,,,,,,,,,,,bars/019.png,bars/mask007.png,,,,,,,,,,,,7,1,,,,,,,10,4,10,5,,,,,,,,,,,1060.2365,1060.7372,1060.9867,1064.9529,space,3.9535,,1064.953,8,52,1065.9534,1065.9535,1065.9658,,,,0,31,31,31,1,45,105,,,,,,,,
,,60dc4394e9e27efa6657582b,65af5573fa16a017ecb780ba,2024-01-23_07h59.08.416,bars,2023.2.3,Win32,60.24096386,657b66ea316d21385b68909f,,,,,,,,,,,1065.966,1066.9724,,,1067.4704,1067.7199,,10,190,,,,,,,,,,,,,,,,bars/009.png,bars/mask003.png,,,,,,,,,,,,8,1,,,,,,,10,2,10,2,,,,,,,,,,,1066.9724,1067.4704,1067.7199,1071.9701,space,4.2355,,1071.9701,5,85,1072.9704,1072.9704,1072.9845,,,,0,32,32,32,1,15,105,,,,,,,,
,,60dc4394e9e27efa6657582b,65af5573fa16a017ecb780ba,2024-01-23_07h59.08.416,bars,2023.2.3,Win32,60.24096386,657b66ea316d21385b68909f,,,,,,,,,,,1072.9846,1073.9872,,,1074.4869,1074.7372,,118,118,,,,,,,,,,,,,,,,bars/005.png,bars/mask004.png,,,,,,,,,,,,2,2,,,,,,,10,4,10,6,,,,,,,,,,,1073.9874,1074.4869,1074.7373,1080.1037,space,5.3508,,1080.1037,72,22,1081.1037,1081.1037,1081.1102,,,,0,33,33,33,1,10,140,,,,,,,,
,,60dc4394e9e27efa6657582b,65af5573fa16a017ecb780ba,2024-01-23_07h59.08.416,bars,2023.2.3,Win32,60.24096386,657b66ea316d21385b68909f,,,,,,,,,,,1081.1102,1082.1037,,,1082.604,1082.8544,,79,79,,,,,,,,,,,,,,,,bars/011.png,bars/mask009.png,,,,,,,,,,,,6,2,,,,,,,8,6,6,7,,,,,,,,,,,1082.1038,1082.604,1082.8544,1085.1372,space,2.2702,,1085.1373,81,6,1086.1374,1086.1375,1086.1446,,,,0,34,34,34,1,160,85,,,,,,,,
,,60dc4394e9e27efa6657582b,65af5573fa16a017ecb780ba,2024-01-23_07h59.08.416,bars,2023.2.3,Win32,60.24096386,657b66ea316d21385b68909f,,,,,,,,,,,1086.1447,1087.1372,,,1087.6378,1087.8881,,83,83,,,,,,,,,,,,,,,,bars/021.png,bars/mask001.png,,,,,,,,,,,,4,2,,,,,,,6,8,7,7,,,,,,,,,,,1087.1372,1087.6378,1087.8881,1096.3052,space,8.4094,,1096.3052,72,13,1097.3051,1097.3052,1097.3202,,,,0,35,35,35,1,155,70,,,,,,,,
,,60dc4394e9e27efa6657582b,65af5573fa16a017ecb780ba,2024-01-23_07h59.08.416,bars,2023.2.3,Win32,60.24096386,657b66ea316d21385b68909f,,,,,,,,,,,1097.3203,1098.3219,,,1098.8218,1099.0718,,59,59,,,,,,,,,,,,,,,,bars/004.png,bars/mask006.png,,,,,,,,,,,,0,1,,,,,,,8,10,9,10,,,,,,,,,,,1098.3219,1098.8218,1099.0719,1104.3725,space,5.284,,1104.3727,34,66,1105.3724,1105.3725,1105.3886,,,,0,36,36,36,1,25,125,,,,,,,,
,,60dc4394e9e27efa6657582b,65af5573fa16a017ecb780ba,2024-01-23_07h59.08.416,bars,2023.2.3,Win32,60.24096386,657b66ea316d21385b68909f,,,,,,,,,,,1105.3888,1106.3889,,,1106.889,1107.1384,,99,99,,,,,,,,,,,,,,,,bars/002.png,bars/mask001.png,,,,,,,,,,,,4,2,,,,,,,10,8,10,8,,,,,,,,,,,1106.3889,1106.889,1107.1384,1109.5726,space,2.4211,,1109.5727,31,14,1110.5727,1110.5728,1110.5892,,,,0,37,37,37,1,130,85,,,,,,,,
,,60dc4394e9e27efa6657582b,65af5573fa16a017ecb780ba,2024-01-23_07h59.08.416,bars,2023.2.3,Win32,60.24096386,657b66ea316d21385b68909f,,,,,,,,,,,1110.5893,1111.5894,,,1112.0888,1112.3394,,45,45,,,,,,,,,,,,,,,,bars/005.png,bars/mask003.png,,,,,,,,,,,,0,1,,,,,,,8,10,9,10,,,,,,,,,,,1111.5895,1112.0888,1112.3395,1117.9566,space,5.6025,,1117.9566,35,85,1118.9563,1118.9563,1118.9705,,,,0,38,38,38,1,10,140,,,,,,,,
,,60dc4394e9e27efa6657582b,65af5573fa16a017ecb780ba,2024-01-23_07h59.08.416,bars,2023.2.3,Win32,60.24096386,657b66ea316d21385b68909f,,,,,,,,,,,1118.9707,1119.973,,,1120.4732,1120.7231,,31,31,,,,,,,,,,,,,,,,bars/018.png,bars/mask007.png,,,,,,,,,,,,0,2,,,,,,,6,8,5,9,,,,,,,,,,,1119.9731,1120.4732,1120.7232,1122.7063,space,1.9672,,1122.7065,61,59,1123.7065,1123.7066,1123.7222,,,,0,39,39,39,1,150,90,,,,,,,,
,,60dc4394e9e27efa6657582b,65af5573fa16a017ecb780ba,2024-01-23_07h59.08.416,bars,2023.2.3,Win32,60.24096386,657b66ea316d21385b68909f,,,,,,,,,,,1123.7224,1124.7234,,,1125.2232,1125.4732,,133,133,,,,,,,,,,,,,,,,bars/040.png,bars/mask000.png,,,,,,,,,,,,3,1,,,,,,,4,6,4,6,,,,,,,,,,,1124.7234,1125.2232,1125.4732,1129.2737,space,3.7869,,1129.2738,7,52,1130.2734,1130.2734,1130.2893,,,,0,40,40,40,1,140,5,,,,,,,,
,,60dc4394e9e27efa6657582b,65af5573fa16a017ecb780ba,2024-01-23_07h59.08.416,bars,2023.2.3,Win32,60.24096386,657b66ea316d21385b68909f,,,,,,,,,,,1130.2897,1131.2904,,,1131.7904,1132.0404,,69,69,,,,,,,,,,,,,,,,bars/026.png,bars/mask005.png,,,,,,,,,,,,4,2,,,,,,,2,8,2,8,,,,,,,,,,,1131.2905,1131.7903,1132.0404,1136.424,space,4.368,,1136.424,34,16,1137.4242,1137.4242,1137.4403,,,,0,41,41,41,1,35,85,,,,,,,,
,,60dc4394e9e27efa6657582b,65af5573fa16a017ecb780ba,2024-01-23_07h59.08.416,bars,2023.2.3,Win32,60.24096386,657b66ea316d21385b68909f,,,,,,,,,,,1137.4405,1138.4404,,,1138.9407,1139.1907,,53,53,,,,,,,,,,,,,,,,bars/045.png,bars/mask002.png,,,,,,,,,,,,0,2,,,,,,,4,10,2,10,,,,,,,,,,,1138.4405,1138.9407,1139.1907,1142.5245,space,3.3193,,1142.5245,47,43,1143.5244,1143.5245,1143.5361,,,,0,42,42,42,1,100,10,,,,,,,,
,,60dc4394e9e27efa6657582b,65af5573fa16a017ecb780ba,2024-01-23_07h59.08.416,bars,2023.2.3,Win32,60.24096386,657b66ea316d21385b68909f,,,,,,,,,,,1143.5362,1144.5244,,,1145.0246,1145.2746,,101,101,,,,,,,,,,,,,,,,bars/025.png,bars/mask006.png,,,,,,,,,,,,5,1,,,,,,,6,8,6,8,,,,,,,,,,,1144.5244,1145.0245,1145.2747,1151.0577,space,5.7757,,1151.0577,4,61,1152.0578,1152.0579,1152.0694,,,,0,43,43,43,1,105,40,,,,,,,,
,,60dc4394e9e27efa6657582b,65af5573fa16a017ecb780ba,2024-01-23_07h59.08.416,bars,2023.2.3,Win32,60.24096386,657b66ea316d21385b68909f,,,,,,,,,,,1152.0695,1153.058,,,1153.5584,1153.8081,,109,109,,,,,,,,,,,,,,,,bars/002.png,bars/mask002.png,,,,,,,,,,,,2,1,,,,,,,4,10,5,10,,,,,,,,,,,1153.058,1153.5583,1153.8081,1159.5586,space,5.7343,,1159.5587,21,24,1160.5588,1160.5588,1160.5714,,,,0,44,44,44,1,130,85,,,,,,,,
,,60dc4394e9e27efa6657582b,65af5573fa16a017ecb780ba,2024-01-23_07h59.08.416,bars,2023.2.3,Win32,60.24096386,657b66ea316d21385b68909f,,,,,,,,,,,1160.5715,1161.5754,,,1162.0755,1162.3252,,64,64,,,,,,,,,,,,,,,,bars/031.png,bars/mask008.png,,,,,,,,,,,,0,2,,,,,,,2,8,2,8,,,,,,,,,,,1161.5754,1162.0755,1162.3252,1168.6424,space,6.3081,,1168.6424,56,29,1169.6422,1169.6423,1169.6561,,,,0,45,45,45,1,120,35,,,,,,,,
,,60dc4394e9e27efa6657582b,65af5573fa16a017ecb780ba,2024-01-23_07h59.08.416,bars,2023.2.3,Win32,60.24096386,657b66ea316d21385b68909f,,,,,,,,,,,1169.6562,1170.6589,,,1171.1588,1171.4092,,134,134,,,,,,,,,,,,,,,,bars/040.png,bars/mask002.png,,,,,,,,,,,,0,1,,,,,,,0,10,0,10,,,,,,,,,,,1170.6589,1171.1588,1171.4092,1177.6763,space,6.259,,1177.6763,6,51,1178.6757,1178.6757,1178.685,,,,0,46,46,46,1,140,5,,,,,,,,
,,60dc4394e9e27efa6657582b,65af5573fa16a017ecb780ba,2024-01-23_07h59.08.416,bars,2023.2.3,Win32,60.24096386,657b66ea316d21385b68909f,,,,,,,,,,,1178.6852,1179.6766,,,1180.1759,1180.4263,,65,65,,,,,,,,,,,,,,,,bars/031.png,bars/mask008.png,,,,,,,,,,,,0,2,,,,,,,0,8,0,7,,,,,,,,,,,1179.6767,1180.1759,1180.4264,1184.5768,space,4.1386,,1184.5769,55,30,1185.5769,1185.5769,1185.587,,,,0,47,47,47,1,120,35,,,,,,,,
,,60dc4394e9e27efa6657582b,65af5573fa16a017ecb780ba,2024-01-23_07h59.08.416,bars,2023.2.3,Win32,60.24096386,657b66ea316d21385b68909f,,,,,,,,,,,1185.5871,1186.5768,,,1187.077,1187.3268,,69,69,,,,,,,,,,,,,,,,bars/031.png,bars/mask008.png,,,,,,,,,,,,0,2,,,,,,,0,10,0,10,,,,,,,,,,,1186.5768,1187.077,1187.3268,1191.5267,space,4.1905,,1191.5267,51,34,1192.5272,1192.5273,1192.5412,,,,0,48,48,48,1,120,35,,,,,,,,
,,60dc4394e9e27efa6657582b,65af5573fa16a017ecb780ba,2024-01-23_07h59.08.416,bars,2023.2.3,Win32,60.24096386,657b66ea316d21385b68909f,,,,,,,,,,,1192.5412,1193.5436,,,1194.0438,1194.2936,,116,116,,,,,,,,,,,,,,,,bars/004.png,bars/mask006.png,,,,,,,,,,,,7,2,,,,,,,2,8,2,10,,,,,,,,,,,1193.5436,1194.0438,1194.2936,1200.978,space,6.6734,,1200.978,89,9,1201.9778,1201.9778,1201.9929,,,,0,49,49,49,1,25,125,,,,,,,,
,,60dc4394e9e27efa6657582b,65af5573fa16a017ecb780ba,2024-01-23_07h59.08.416,bars,2023.2.3,Win32,60.24096386,657b66ea316d21385b68909f,,,,,,,,,,,,,,,,,,,,,,,,,,,,,,,,,,,,,,,,,,,,,,,,,,,,,,,,,,,,,,,,,,,,,,,,,,,,,,,,,,,,,,,,,,,,,1201.9931,1261.9813,0,1,1,2,1,sequence_tables/blk037.csv
,,60dc4394e9e27efa6657582b,65af5573fa16a017ecb780ba,2024-01-23_07h59.08.416,bars,2023.2.3,Win32,60.24096386,657b66ea316d21385b68909f,,,,,,,,,,,1283.5364,1284.5322,,,1285.0328,1285.2828,,40,40,,,,,,,,,,,,,,,,bars/002.png,bars/mask000.png,,,,,,,,,,,,0,2,,,,,,,10,1,8,0,,,,,,1262.0024,1283.5217,space,21.5119,,1284.5324,1285.0327,1285.283,1287.4833,space,2.1684,,1287.4837,90,45,1288.4829,1288.483,1288.4956,,,,0,0,0,0,1,130,85,,,,,,,,
,,60dc4394e9e27efa6657582b,65af5573fa16a017ecb780ba,2024-01-23_07h59.08.416,bars,2023.2.3,Win32,60.24096386,657b66ea316d21385b68909f,,,,,,,,,,,1288.4959,1289.4996,,,1289.9996,1290.249,,4,4,,,,,,,,,,,,,,,,bars/024.png,bars/mask000.png,,,,,,,,,,,,0,2,,,,,,,8,0,8,0,,,,,,,,,,,1289.4997,1289.9995,1290.249,1379.6096,space,89.3383,,1379.6097,64,14,1380.6048,1380.6049,1380.6198,,,,0,1,1,1,1,120,170,,,,,,,,
,,60dc4394e9e27efa6657582b,65af5573fa16a017ecb780ba,2024-01-23_07h59.08.416,bars,2023.2.3,Win32,60.24096386,657b66ea316d21385b68909f,,,,,,,,,,,1380.6199,1381.626,,,1382.1214,1382.3716,,165,165,,,,,,,,,,,,,,,,bars/043.png,bars/mask006.png,,,,,,,,,,,,0,2,,,,,,,6,0,5,0,,,,,,,,,,,1381.6261,1382.1213,1382.3717,1476.9647,space,94.5723,,1476.9648,45,35,1477.9607,1477.9608,1477.9738,,,,0,2,2,2,1,30,130,,,,,,,,
,,60dc4394e9e27efa6657582b,65af5573fa16a017ecb780ba,2024-01-23_07h59.08.416,bars,2023.2.3,Win32,60.24096386,657b66ea316d21385b68909f,,,,,,,,,,,1477.974,1478.9768,,,1479.4769,1479.7269,,161,161,,,,,,,,,,,,,,,,bars/031.png,bars/mask003.png,,,,,,,,,,,,0,1,,,,,,,4,2,3,0,,,,,,,,,,,1478.977,1479.4768,1479.7271,1521.3523,space,41.6032,,1521.3523,41,54,1522.3517,1522.3517,1522.3533,,,,0,3,3,3,1,120,35,,,,,,,,
,,60dc4394e9e27efa6657582b,65af5573fa16a017ecb780ba,2024-01-23_07h59.08.416,bars,2023.2.3,Win32,60.24096386,657b66ea316d21385b68909f,,,,,,,,,,,1522.3534,1523.3462,,,1523.8517,1524.0959,,25,25,,,,,,,,,,,,,,,,bars/024.png,bars/mask000.png,,,,,,,,,,,,0,2,,,,,,,6,0,5,0,,,,,,,,,,,1523.3463,1523.8517,1524.0959,1531.2972,space,7.1942,,1531.2973,85,35,1532.297,1532.2972,1532.3099,,,,0,4,4,4,1,120,170,,,,,,,,
,,60dc4394e9e27efa6657582b,65af5573fa16a017ecb780ba,2024-01-23_07h59.08.416,bars,2023.2.3,Win32,60.24096386,657b66ea316d21385b68909f,,,,,,,,,,,1532.3101,1533.3135,,,1533.8183,1534.0636,,24,24,,,,,,,,,,,,,,,,bars/024.png,bars/mask001.png,,,,,,,,,,,,0,2,,,,,,,8,2,10,5,,,,,,,,,,,1533.3135,1533.8182,1534.0637,1539.117,space,5.0317,,1539.117,84,34,1540.1139,1540.1139,1540.1271,,,,0,5,5,5,1,120,170,,,,,,,,
,,60dc4394e9e27efa6657582b,65af5573fa16a017ecb780ba,2024-01-23_07h59.08.416,bars,2023.2.3,Win32,60.24096386,657b66ea316d21385b68909f,,,,,,,,,,,1540.1272,1541.1335,,,1541.6313,1541.8808,,66,66,,,,,,,,,,,,,,,,bars/028.png,bars/mask000.png,,,,,,,,,,,,3,1,,,,,,,10,0,10,1,,,,,,,,,,,1541.1335,1541.6312,1541.8808,1544.4815,space,2.5716,,1544.4816,21,54,1545.4847,1545.4848,1545.497,,,,0,6,6,6,1,45,120,,,,,,,,
,,60dc4394e9e27efa6657582b,65af5573fa16a017ecb780ba,2024-01-23_07h59.08.416,bars,2023.2.3,Win32,60.24096386,657b66ea316d21385b68909f,,,,,,,,,,,1545.4979,1546.4991,,,1547.0032,1547.2475,,21,201,,,,,,,,,,,,,,,,bars/033.png,bars/mask000.png,,,,,,,,,,,,9,1,,,,,,,10,0,10,0,,,,,,,,,,,1546.4992,1547.0032,1547.2476,1552.1806,space,4.9017,,1552.1808,4,46,1553.1805,1553.1806,1553.1898,,,,0,7,7,7,1,25,155,,,,,,,,
,,60dc4394e9e27efa6657582b,65af5573fa16a017ecb780ba,2024-01-23_07h59.08.416,bars,2023.2.3,Win32,60.24096386,657b66ea316d21385b68909f,,,,,,,,,,,1553.19,1554.1832,,,1554.6818,1554.9313,,50,50,,,,,,,,,,,,,,,,bars/044.png,bars/mask002.png,,,,,,,,,,,,1,1,,,,,,,10,0,8,0,,,,,,,,,,,1554.1833,1554.6816,1554.9313,1557.0486,space,2.1011,,1557.0488,25,75,1558.0484,1558.0484,1558.0501,,,,0,8,8,8,1,75,155,,,,,,,,
,,60dc4394e9e27efa6657582b,65af5573fa16a017ecb780ba,2024-01-23_07h59.08.416,bars,2023.2.3,Win32,60.24096386,657b66ea316d21385b68909f,,,,,,,,,,,1558.0505,1559.0482,,,1559.5483,1559.8021,,60,60,,,,,,,,,,,,,,,,bars/007.png,bars/mask005.png,,,,,,,,,,,,0,2,,,,,,,8,0,9,0,,,,,,,,,,,1559.0483,1559.5483,1559.8022,1565.6718,space,5.8514,,1565.6719,65,5,1566.6655,1566.6656,1566.6802,,,,0,9,9,9,1,175,55,,,,,,,,
,,60dc4394e9e27efa6657582b,65af5573fa16a017ecb780ba,2024-01-23_07h59.08.416,bars,2023.2.3,Win32,60.24096386,657b66ea316d21385b68909f,,,,,,,,,,,1566.6803,1567.6823,,,1568.1814,1568.4324,,30,30,,,,,,,,,,,,,,,,bars/035.png,bars/mask005.png,,,,,,,,,,,,0,2,,,,,,,10,2,7,4,,,,,,,,,,,1567.6824,1568.1813,1568.4324,1573.3385,space,4.8839,,1573.3386,35,30,1574.3324,1574.3325,1574.3465,,,,0,10,10,10,1,175,60,,,,,,,,
,,60dc4394e9e27efa6657582b,65af5573fa16a017ecb780ba,2024-01-23_07h59.08.416,bars,2023.2.3,Win32,60.24096386,657b66ea316d21385b68909f,,,,,,,,,,,1574.3467,1575.3493,,,1575.837,1576.0827,,120,120,,,,,,,,,,,,,,,,bars/049.png,bars/mask000.png,,,,,,,,,,,,3,2,,,,,,,10,4,10,4,,,,,,,,,,,1575.3493,1575.837,1576.0827,1580.7832,space,4.6742,,1580.7834,40,5,1581.7827,1581.7828,1581.7945,,,,0,11,11,11,1,160,115,,,,,,,,
,,60dc4394e9e27efa6657582b,65af5573fa16a017ecb780ba,2024-01-23_07h59.08.416,bars,2023.2.3,Win32,60.24096386,657b66ea316d21385b68909f,,,,,,,,,,,1581.7947,1582.7831,,,1583.2829,1583.5216,,67,247,,,,,,,,,,,,,,,,bars/017.png,bars/mask008.png,,,,,,,,,,,,2,2,,,,,,,8,6,7,8,,,,,,,,,,,1582.7832,1583.2828,1583.5216,1587.8397,space,4.3013,,1587.8397,78,22,1588.8362,1588.8362,1588.8492,,,,0,12,12,12,1,145,45,,,,,,,,
,,60dc4394e9e27efa6657582b,65af5573fa16a017ecb780ba,2024-01-23_07h59.08.416,bars,2023.2.3,Win32,60.24096386,657b66ea316d21385b68909f,,,,,,,,,,,1588.8495,1589.8541,,,1590.3531,1590.6011,,99,99,,,,,,,,,,,,,,,,bars/022.png,bars/mask007.png,,,,,,,,,,,,5,1,,,,,,,6,4,6,2,,,,,,,,,,,1589.8542,1590.3529,1590.6013,1599.2836,space,8.6612,,1599.2836,4,79,1600.2728,1600.2729,1600.2891,,,,0,13,13,13,1,95,20,,,,,,,,
,,60dc4394e9e27efa6657582b,65af5573fa16a017ecb780ba,2024-01-23_07h59.08.416,bars,2023.2.3,Win32,60.24096386,657b66ea316d21385b68909f,,,,,,,,,,,1600.2892,1601.2839,,,1601.7721,1602.0175,,56,56,,,,,,,,,,,,,,,,bars/005.png,bars/mask006.png,,,,,,,,,,,,0,1,,,,,,,4,6,4,6,,,,,,,,,,,1601.284,1601.7719,1602.0176,1608.9518,space,6.9038,,1608.9519,46,84,1609.9513,1609.9514,1609.9651,,,,0,14,14,14,1,10,140,,,,,,,,
,,60dc4394e9e27efa6657582b,65af5573fa16a017ecb780ba,2024-01-23_07h59.08.416,bars,2023.2.3,Win32,60.24096386,657b66ea316d21385b68909f,,,,,,,,,,,1609.9652,1610.956,,,1611.4516,1611.7012,,45,45,,,,,,,,,,,,,,,,bars/010.png,bars/mask006.png,,,,,,,,,,,,2,2,,,,,,,6,4,5,3,,,,,,,,,,,1610.956,1611.4515,1611.7014,1614.4179,space,2.6849,,1614.418,60,10,1615.4182,1615.4184,1615.4333,,,,0,15,15,15,1,165,55,,,,,,,,
,,60dc4394e9e27efa6657582b,65af5573fa16a017ecb780ba,2024-01-23_07h59.08.416,bars,2023.2.3,Win32,60.24096386,657b66ea316d21385b68909f,,,,,,,,,,,1615.4335,1616.4403,,,1616.9353,1617.1844,,60,60,,,,,,,,,,,,,,,,bars/016.png,bars/mask003.png,,,,,,,,,,,,1,1,,,,,,,4,2,3,3,,,,,,,,,,,1616.4403,1616.9351,1617.1845,1619.5518,space,2.3421,,1619.5519,20,75,1620.5405,1620.5405,1620.5556,,,,0,16,16,16,1,40,165,,,,,,,,
,,60dc4394e9e27efa6657582b,65af5573fa16a017ecb780ba,2024-01-23_07h59.08.416,bars,2023.2.3,Win32,60.24096386,657b66ea316d21385b68909f,,,,,,,,,,,1620.5558,1621.5518,,,1622.0519,1622.3049,,116,116,,,,,,,,,,,,,,,,bars/002.png,bars/mask002.png,,,,,,,,,,,,1,1,,,,,,,2,4,2,4,,,,,,,,,,,1621.5519,1622.0519,1622.3049,1625.2702,space,2.9456,,1625.2702,14,31,1626.2688,1626.2689,1626.2834,,,,0,17,17,17,1,130,85,,,,,,,,
,,60dc4394e9e27efa6657582b,65af5573fa16a017ecb780ba,2024-01-23_07h59.08.416,bars,2023.2.3,Win32,60.24096386,657b66ea316d21385b68909f,,,,,,,,,,,1626.2837,1627.29,,,1627.7854,1628.0351,,47,227,,,,,,,,,,,,,,,,bars/016.png,bars/mask004.png,,,,,,,,,,,,0,1,,,,,,,0,2,0,2,,,,,,,,,,,1627.2901,1627.7854,1628.0352,1634.0525,space,5.9856,,1634.0526,7,62,1635.0522,1635.0524,1635.0609,,,,0,18,18,18,1,40,165,,,,,,,,
,,60dc4394e9e27efa6657582b,65af5573fa16a017ecb780ba,2024-01-23_07h59.08.416,bars,2023.2.3,Win32,60.24096386,657b66ea316d21385b68909f,,,,,,,,,,,1635.0611,1636.0525,,,1636.5527,1636.8032,,105,105,,,,,,,,,,,,,,,,bars/011.png,bars/mask007.png,,,,,,,,,,,,1,2,,,,,,,0,4,0,4,,,,,,,,,,,1636.0526,1636.5526,1636.8035,1640.6371,space,3.8022,,1640.6373,55,20,1641.6365,1641.6367,1641.6558,,,,0,19,19,19,1,160,85,,,,,,,,
,,60dc4394e9e27efa6657582b,65af5573fa16a017ecb780ba,2024-01-23_07h59.08.416,bars,2023.2.3,Win32,60.24096386,657b66ea316d21385b68909f,,,,,,,,,,,1641.6561,1642.6528,,,1643.1553,1643.4029,,41,41,,,,,,,,,,,,,,,,bars/047.png,bars/mask000.png,,,,,,,,,,,,0,1,,,,,,,2,2,1,3,,,,,,,,,,,1642.6529,1643.1553,1643.4031,1646.1372,space,2.7031,,1646.1373,26,29,1647.1367,1647.1368,1647.1505,,,,0,20,20,20,1,15,70,,,,,,,,
,,60dc4394e9e27efa6657582b,65af5573fa16a017ecb780ba,2024-01-23_07h59.08.416,bars,2023.2.3,Win32,60.24096386,657b66ea316d21385b68909f,,,,,,,,,,,1647.1506,1648.1527,,,1648.6535,1648.9035,,130,130,,,,,,,,,,,,,,,,bars/032.png,bars/mask007.png,,,,,,,,,,,,0,1,,,,,,,0,4,0,5,,,,,,,,,,,1648.1527,1648.6533,1648.9036,1653.777,space,4.8663,,1653.7771,5,70,1654.7704,1654.7705,1654.7841,,,,0,21,21,21,1,125,20,,,,,,,,
,,60dc4394e9e27efa6657582b,65af5573fa16a017ecb780ba,2024-01-23_07h59.08.416,bars,2023.2.3,Win32,60.24096386,657b66ea316d21385b68909f,,,,,,,,,,,1654.7843,1655.7871,,,1656.2875,1656.5416,,101,101,,,,,,,,,,,,,,,,bars/001.png,bars/mask003.png,,,,,,,,,,,,1,2,,,,,,,2,2,2,2,,,,,,,,,,,1655.7873,1656.2873,1656.5416,1659.1098,space,2.5515,,1659.1098,29,16,1660.1037,1660.1037,1660.1115,,,,0,22,22,22,1,130,85,,,,,,,,
,,60dc4394e9e27efa6657582b,65af5573fa16a017ecb780ba,2024-01-23_07h59.08.416,bars,2023.2.3,Win32,60.24096386,657b66ea316d21385b68909f,,,,,,,,,,,1660.1116,1661.1047,,,1661.5928,1661.8377,,23,23,,,,,,,,,,,,,,,,bars/021.png,bars/mask007.png,,,,,,,,,,,,0,2,,,,,,,0,4,0,2,,,,,,,,,,,1661.1049,1661.5928,1661.8377,1666.276,space,4.4319,,1666.276,48,47,1667.271,1667.271,1667.2844,,,,0,23,23,23,1,155,70,,,,,,,,
,,60dc4394e9e27efa6657582b,65af5573fa16a017ecb780ba,2024-01-23_07h59.08.416,bars,2023.2.3,Win32,60.24096386,657b66ea316d21385b68909f,,,,,,,,,,,1667.2846,1668.2878,,,1668.7884,1669.0378,,82,82,,,,,,,,,,,,,,,,bars/014.png,bars/mask002.png,,,,,,,,,,,,2,1,,,,,,,2,2,2,1,,,,,,,,,,,1668.2878,1668.7883,1669.0379,1672.3447,space,3.2874,,1672.3448,2,82,1673.3382,1673.3384,1673.3522,,,,0,24,24,24,1,80,0,,,,,,,,
,,60dc4394e9e27efa6657582b,65af5573fa16a017ecb780ba,2024-01-23_07h59.08.416,bars,2023.2.3,Win32,60.24096386,657b66ea316d21385b68909f,,,,,,,,,,,1673.3524,1674.355,,,1674.8594,1675.1054,,64,64,,,,,,,,,,,,,,,,bars/010.png,bars/mask001.png,,,,,,,,,,,,4,2,,,,,,,4,4,3,5,,,,,,,,,,,1674.3552,1674.8593,1675.1056,1676.7088,space,1.5816,,1676.7088,79,9,1677.7107,1677.7108,1677.7262,,,,0,25,25,25,1,165,55,,,,,,,,
,,60dc4394e9e27efa6657582b,65af5573fa16a017ecb780ba,2024-01-23_07h59.08.416,bars,2023.2.3,Win32,60.24096386,657b66ea316d21385b68909f,,,,,,,,,,,1677.7265,1678.7209,,,1679.2217,1679.4606,,134,-46,,,,,,,,,,,,,,,,bars/036.png,bars/mask002.png,,,,,,,,,,,,4,1,,,,,,,6,2,6,3,,,,,,,,,,,1678.721,1679.2216,1679.4606,1683.0062,space,3.5361,,1683.0064,11,66,1684.0111,1684.0111,1684.0276,,,,0,26,26,26,1,145,20,,,,,,,,
,,60dc4394e9e27efa6657582b,65af5573fa16a017ecb780ba,2024-01-23_07h59.08.416,bars,2023.2.3,Win32,60.24096386,657b66ea316d21385b68909f,,,,,,,,,,,1684.0279,1685.0218,,,1685.5216,1685.7724,,144,144,,,,,,,,,,,,,,,,bars/035.png,bars/mask005.png,,,,,,,,,,,,0,1,,,,,,,8,4,7,4,,,,,,,,,,,1685.0218,1685.5216,1685.7725,1691.5957,space,5.8011,,1691.5957,31,84,1692.5894,1692.5896,1692.5998,,,,0,27,27,27,1,175,60,,,,,,,,
,,60dc4394e9e27efa6657582b,65af5573fa16a017ecb780ba,2024-01-23_07h59.08.416,bars,2023.2.3,Win32,60.24096386,657b66ea316d21385b68909f,,,,,,,,,,,1692.6,1693.5895,,,1694.0895,1694.3283,,78,258,,,,,,,,,,,,,,,,bars/027.png,bars/mask008.png,,,,,,,,,,,,0,2,,,,,,,10,6,10,5,,,,,,,,,,,1693.5896,1694.0895,1694.3283,1698.6895,space,4.3452,,1698.6895,32,28,1699.6898,1699.6899,1699.7034,,,,0,28,28,28,1,110,50,,,,,,,,
,,60dc4394e9e27efa6657582b,65af5573fa16a017ecb780ba,2024-01-23_07h59.08.416,bars,2023.2.3,Win32,60.24096386,657b66ea316d21385b68909f,,,,,,,,,,,1699.7035,1700.7109,,,1701.2057,1701.4455,,75,75,,,,,,,,,,,,,,,,bars/031.png,bars/mask000.png,,,,,,,,,,,,0,2,,,,,,,10,4,10,4,,,,,,,,,,,1700.711,1701.2056,1701.4455,1704.7084,space,3.247,,1704.7084,45,40,1705.7113,1705.7115,1705.7248,,,,0,29,29,29,1,120,35,,,,,,,,
,,60dc4394e9e27efa6657582b,65af5573fa16a017ecb780ba,2024-01-23_07h59.08.416,bars,2023.2.3,Win32,60.24096386,657b66ea316d21385b68909f,,,,,,,,,,,1705.725,1706.7235,,,1707.2225,1707.4736,,75,75,,,,,,,,,,,,,,,,bars/013.png,bars/mask008.png,,,,,,,,,,,,7,1,,,,,,,8,6,7,5,,,,,,,,,,,1706.7235,1707.2225,1707.4736,1709.2572,space,1.7557,,1709.2574,0,65,1710.257,1710.2572,1710.2703,,,,0,30,30,30,1,75,10,,,,,,,,
,,60dc4394e9e27efa6657582b,65af5573fa16a017ecb780ba,2024-01-23_07h59.08.416,bars,2023.2.3,Win32,60.24096386,657b66ea316d21385b68909f,,,,,,,,,,,1710.2704,1711.2739,,,1711.7627,1712.0122,,6,186,,,,,,,,,,,,,,,,bars/039.png,bars/mask001.png,,,,,,,,,,,,4,1,,,,,,,6,8,6,10,,,,,,,,,,,1711.2739,1711.7627,1712.0123,1716.4585,space,4.4399,,1716.4585,11,81,1717.4575,1717.4575,1717.4703,,,,0,31,31,31,1,175,105,,,,,,,,
,,60dc4394e9e27efa6657582b,65af5573fa16a017ecb780ba,2024-01-23_07h59.08.416,bars,2023.2.3,Win32,60.24096386,657b66ea316d21385b68909f,,,,,,,,,,,1717.4704,1718.4739,,,1718.962,1719.2068,,122,122,,,,,,,,,,,,,,,,bars/008.png,bars/mask002.png,,,,,,,,,,,,2,1,,,,,,,4,10,4,10,,,,,,,,,,,1718.474,1718.9619,1719.2068,1723.1144,space,3.8851,,1723.1144,12,58,1724.1077,1724.1077,1724.1198,,,,0,32,32,32,1,110,0,,,,,,,,
,,60dc4394e9e27efa6657582b,65af5573fa16a017ecb780ba,2024-01-23_07h59.08.416,bars,2023.2.3,Win32,60.24096386,657b66ea316d21385b68909f,,,,,,,,,,,1724.12,1725.1077,,,1725.6082,1725.8579,,59,59,,,,,,,,,,,,,,,,bars/019.png,bars/mask007.png,,,,,,,,,,,,1,1,,,,,,,2,10,2,9,,,,,,,,,,,1725.1077,1725.608,1725.8579,1728.3743,space,2.4851,,1728.3744,14,46,1729.3747,1729.3748,1729.3764,,,,0,33,33,33,1,45,105,,,,,,,,
,,60dc4394e9e27efa6657582b,65af5573fa16a017ecb780ba,2024-01-23_07h59.08.416,bars,2023.2.3,Win32,60.24096386,657b66ea316d21385b68909f,,,,,,,,,,,1729.3767,1730.3748,,,1730.8748,1731.1246,,120,120,,,,,,,,,,,,,,,,bars/045.png,bars/mask005.png,,,,,,,,,,,,0,1,,,,,,,0,8,1,7,,,,,,,,,,,1730.3749,1730.8747,1731.1248,1735.9421,space,4.8086,,1735.9423,20,70,1736.9409,1736.941,1736.9505,,,,0,34,34,34,1,100,10,,,,,,,,
,,60dc4394e9e27efa6657582b,65af5573fa16a017ecb780ba,2024-01-23_07h59.08.416,bars,2023.2.3,Win32,60.24096386,657b66ea316d21385b68909f,,,,,,,,,,,1736.9507,1737.9418,,,1738.4421,1738.6917,,41,221,,,,,,,,,,,,,,,,bars/035.png,bars/mask009.png,,,,,,,,,,,,3,2,,,,,,,0,10,0,9,,,,,,,,,,,1737.9418,1738.442,1738.6919,1742.2969,space,3.5988,,1742.297,46,19,1743.292,1743.2921,1743.3046,,,,0,35,35,35,1,175,60,,,,,,,,
,,60dc4394e9e27efa6657582b,65af5573fa16a017ecb780ba,2024-01-23_07h59.08.416,bars,2023.2.3,Win32,60.24096386,657b66ea316d21385b68909f,,,,,,,,,,,1743.3047,1744.3089,,,1744.8093,1745.0588,,164,-16,,,,,,,,,,,,,,,,bars/033.png,bars/mask008.png,,,,,,,,,,,,5,2,,,,,,,2,8,4,7,,,,,,,,,,,1744.3091,1744.8092,1745.0589,1747.4985,space,2.4181,,1747.4986,41,9,1748.4923,1748.4923,1748.5044,,,,0,36,36,36,1,25,155,,,,,,,,
,,60dc4394e9e27efa6657582b,65af5573fa16a017ecb780ba,2024-01-23_07h59.08.416,bars,2023.2.3,Win32,60.24096386,657b66ea316d21385b68909f,,,,,,,,,,,1748.5045,1749.4924,,,1749.9928,1750.2423,,30,210,,,,,,,,,,,,,,,,bars/008.png,bars/mask009.png,,,,,,,,,,,,0,2,,,,,,,0,6,0,5,,,,,,,,,,,1749.4924,1749.9928,1750.2424,1758.4635,space,8.1987,,1758.4635,80,30,1759.4599,1759.4601,1759.4789,,,,0,37,37,37,1,110,0,,,,,,,,
,,60dc4394e9e27efa6657582b,65af5573fa16a017ecb780ba,2024-01-23_07h59.08.416,bars,2023.2.3,Win32,60.24096386,657b66ea316d21385b68909f,,,,,,,,,,,1759.4791,1760.4765,,,1760.9766,1761.2298,,57,57,,,,,,,,,,,,,,,,bars/001.png,bars/mask002.png,,,,,,,,,,,,1,2,,,,,,,2,8,2,8,,,,,,,,,,,1760.4766,1760.9766,1761.2298,1768.0169,space,6.7685,,1768.017,73,28,1769.0104,1769.0106,1769.0232,,,,0,38,38,38,1,130,85,,,,,,,,
,,60dc4394e9e27efa6657582b,65af5573fa16a017ecb780ba,2024-01-23_07h59.08.416,bars,2023.2.3,Win32,60.24096386,657b66ea316d21385b68909f,,,,,,,,,,,1769.0234,1770.0265,,,1770.5299,1770.782,,58,58,,,,,,,,,,,,,,,,bars/038.png,bars/mask003.png,,,,,,,,,,,,6,2,,,,,,,4,10,5,10,,,,,,,,,,,1770.0267,1770.5299,1770.7821,1774.9612,space,4.1522,,1774.9613,73,12,1775.9609,1775.961,1775.9762,,,,0,39,39,39,1,165,70,,,,,,,,
,,60dc4394e9e27efa6657582b,65af5573fa16a017ecb780ba,2024-01-23_07h59.08.416,bars,2023.2.3,Win32,60.24096386,657b66ea316d21385b68909f,,,,,,,,,,,1775.9764,1776.9774,,,1777.4776,1777.7165,,25,205,,,,,,,,,,,,,,,,bars/042.png,bars/mask008.png,,,,,,,,,,,,0,2,,,,,,,6,10,5,10,,,,,,,,,,,1776.9775,1777.4775,1777.7166,1783.5269,space,5.7891,,1783.5269,60,50,1784.5273,1784.5275,1784.5414,,,,0,40,40,40,1,145,75,,,,,,,,
,,60dc4394e9e27efa6657582b,65af5573fa16a017ecb780ba,2024-01-23_07h59.08.416,bars,2023.2.3,Win32,60.24096386,657b66ea316d21385b68909f,,,,,,,,,,,1784.5414,1785.5448,,,1786.0448,1786.2832,,95,95,,,,,,,,,,,,,,,,bars/002.png,bars/mask008.png,,,,,,,,,,,,4,2,,,,,,,8,8,8,6,,,,,,,,,,,1785.545,1786.0448,1786.2832,1787.7781,space,1.4741,,1787.7783,35,10,1788.7833,1788.7833,1788.7846,,,,0,41,41,41,1,130,85,,,,,,,,
,,60dc4394e9e27efa6657582b,65af5573fa16a017ecb780ba,2024-01-23_07h59.08.416,bars,2023.2.3,Win32,60.24096386,657b66ea316d21385b68909f,,,,,,,,,,,1788.7851,1789.781,,,1790.2782,1790.528,,10,190,,,,,,,,,,,,,,,,bars/021.png,bars/mask001.png,,,,,,,,,,,,0,1,,,,,,,6,10,5,10,,,,,,,,,,,1789.7811,1790.2782,1790.5281,1792.9664,space,2.4326,,1792.9665,35,60,1793.9658,1793.9658,1793.9817,,,,0,42,42,42,1,155,70,,,,,,,,
,,60dc4394e9e27efa6657582b,65af5573fa16a017ecb780ba,2024-01-23_07h59.08.416,bars,2023.2.3,Win32,60.24096386,657b66ea316d21385b68909f,,,,,,,,,,,1793.982,1794.9784,,,1795.4785,1795.7172,,64,64,,,,,,,,,,,,,,,,bars/019.png,bars/mask005.png,,,,,,,,,,,,3,1,,,,,,,8,10,9,10,,,,,,,,,,,1794.9785,1795.4784,1795.7173,1797.6679,space,1.9339,,1797.6679,19,41,1798.662,1798.662,1798.6636,,,,0,43,43,43,1,45,105,,,,,,,,
,,60dc4394e9e27efa6657582b,65af5573fa16a017ecb780ba,2024-01-23_07h59.08.416,bars,2023.2.3,Win32,60.24096386,657b66ea316d21385b68909f,,,,,,,,,,,1798.6637,1799.6665,,,1800.1662,1800.4125,,162,-18,,,,,,,,,,,,,,,,bars/033.png,bars/mask001.png,,,,,,,,,,,,8,2,,,,,,,10,10,10,10,,,,,,,,,,,1799.6665,1800.1662,1800.4126,1806.7188,space,6.2851,,1806.7189,43,7,1807.7127,1807.7128,1807.7289,,,,0,44,44,44,1,25,155,,,,,,,,
,,60dc4394e9e27efa6657582b,65af5573fa16a017ecb780ba,2024-01-23_07h59.08.416,bars,2023.2.3,Win32,60.24096386,657b66ea316d21385b68909f,,,,,,,,,,,1807.7295,1808.7289,,,1809.2285,1809.4795,,2,182,,,,,,,,,,,,,,,,bars/023.png,bars/mask003.png,,,,,,,,,,,,4,1,,,,,,,10,8,10,8,,,,,,,,,,,1808.729,1809.2284,1809.4795,1811.968,space,2.4666,,1811.968,18,67,1812.9626,1812.9626,1812.9767,,,,0,45,45,45,1,20,115,,,,,,,,
,,60dc4394e9e27efa6657582b,65af5573fa16a017ecb780ba,2024-01-23_07h59.08.416,bars,2023.2.3,Win32,60.24096386,657b66ea316d21385b68909f,,,,,,,,,,,1812.9768,1813.9797,,,1814.4683,1814.713,,146,-34,,,,,,,,,,,,,,,,bars/010.png,bars/mask001.png,,,,,,,,,,,,4,1,,,,,,,10,10,10,10,,,,,,,,,,,1813.9798,1814.4683,1814.7131,1817.1793,space,2.436,,1817.1794,19,89,1818.1795,1818.1796,1818.1915,,,,0,46,46,46,1,165,55,,,,,,,,
,,60dc4394e9e27efa6657582b,65af5573fa16a017ecb780ba,2024-01-23_07h59.08.416,bars,2023.2.3,Win32,60.24096386,657b66ea316d21385b68909f,,,,,,,,,,,1818.1917,1819.1957,,,1819.6842,1819.9299,,73,253,,,,,,,,,,,,,,,,bars/029.png,bars/mask009.png,,,,,,,,,,,,4,1,,,,,,,10,10,10,10,,,,,,,,,,,1819.1957,1819.6841,1819.9301,1824.036,space,4.0843,,1824.0361,17,28,1825.0299,1825.03,1825.0406,,,,0,47,47,47,1,90,45,,,,,,,,
,,60dc4394e9e27efa6657582b,65af5573fa16a017ecb780ba,2024-01-23_07h59.08.416,bars,2023.2.3,Win32,60.24096386,657b66ea316d21385b68909f,,,,,,,,,,,1825.0408,1826.0298,,,1826.5348,1826.7805,,55,235,,,,,,,,,,,,,,,,bars/029.png,bars/mask004.png,,,,,,,,,,,,7,2,,,,,,,10,10,10,10,,,,,,,,,,,1826.03,1826.5348,1826.7807,1830.5536,space,3.7511,,1830.5536,35,10,1831.5514,1831.5514,1831.5659,,,,0,48,48,48,1,90,45,,,,,,,,
,,60dc4394e9e27efa6657582b,65af5573fa16a017ecb780ba,2024-01-23_07h59.08.416,bars,2023.2.3,Win32,60.24096386,657b66ea316d21385b68909f,,,,,,,,,,,1831.566,1832.5639,,,1833.0642,1833.3142,,119,119,,,,,,,,,,,,,,,,bars/030.png,bars/mask009.png,,,,,,,,,,,,2,1,,,,,,,8,8,6,6,,,,,,,,,,,1832.564,1833.0641,1833.3143,1836.1645,space,2.819,,1836.1647,21,54,1837.164,1837.1641,1837.1776,,,,0,49,49,49,1,140,65,,,,,,,,
,,60dc4394e9e27efa6657582b,65af5573fa16a017ecb780ba,2024-01-23_07h59.08.416,bars,2023.2.3,Win32,60.24096386,657b66ea316d21385b68909f,,,,,,,,,,,,,,,,,,,,,,,,,,,,,,,,,,,,,,,,,,,,,,,,,,,,,,,,,,,,,,,,,,,,,,,,,,,,,,,,,,,,,,,,,,,,,1837.1778,1897.1679,0,2,2,0,1,sequence_tables/blk041.csv
,,60dc4394e9e27efa6657582b,65af5573fa16a017ecb780ba,2024-01-23_07h59.08.416,bars,2023.2.3,Win32,60.24096386,657b66ea316d21385b68909f,,,,,,,,,,,1906.0969,1907.1015,,,1907.6017,1907.8392,,152,152,,,,,,,,,,,,,,,,bars/021.png,bars/mask007.png,,,,,,,,,,,,5,1,,,,,,,6,1,6,0,,,,,,1897.1837,1906.0849,space,8.8872,,1907.1016,1907.6015,1907.8393,1912.3748,space,4.5192,,1912.3748,3,82,1913.3684,1913.3685,1913.3807,,,,0,0,0,0,1,155,70,,,,,,,,
,,60dc4394e9e27efa6657582b,65af5573fa16a017ecb780ba,2024-01-23_07h59.08.416,bars,2023.2.3,Win32,60.24096386,657b66ea316d21385b68909f,,,,,,,,,,,1913.3809,1914.3849,,,1914.8855,1915.1353,,138,138,,,,,,,,,,,,,,,,bars/010.png,bars/mask006.png,,,,,,,,,,,,1,1,,,,,,,8,3,8,3,,,,,,,,,,,1914.385,1914.8854,1915.1354,1919.4857,space,4.3436,,1919.486,27,83,1920.4858,1920.4858,1920.4989,,,,0,1,1,1,1,165,55,,,,,,,,
,,60dc4394e9e27efa6657582b,65af5573fa16a017ecb780ba,2024-01-23_07h59.08.416,bars,2023.2.3,Win32,60.24096386,657b66ea316d21385b68909f,,,,,,,,,,,1920.4991,1921.5077,,,1922.0069,1922.252,,49,229,,,,,,,,,,,,,,,,bars/018.png,bars/mask005.png,,,,,,,,,,,,0,2,,,,,,,10,5,10,6,,,,,,,,,,,1921.5077,1922.0069,1922.2521,1925.4031,space,3.123,,1925.4033,79,41,1926.4027,1926.4028,1926.4186,,,,0,2,2,2,1,150,90,,,,,,,,
,,60dc4394e9e27efa6657582b,65af5573fa16a017ecb780ba,2024-01-23_07h59.08.416,bars,2023.2.3,Win32,60.24096386,657b66ea316d21385b68909f,,,,,,,,,,,1926.4189,1927.4072,,,1927.9054,1928.158,,58,58,,,,,,,,,,,,,,,,bars/006.png,bars/mask006.png,,,,,,,,,,,,2,1,,,,,,,10,3,9,2,,,,,,,,,,,1927.4072,1927.9053,1928.158,1931.3079,space,3.1336,,1931.3079,23,42,1932.3033,1932.3038,1932.318,,,,0,3,3,3,1,35,100,,,,,,,,
,,60dc4394e9e27efa6657582b,65af5573fa16a017ecb780ba,2024-01-23_07h59.08.416,bars,2023.2.3,Win32,60.24096386,657b66ea316d21385b68909f,,,,,,,,,,,1932.3181,1933.3241,,,1933.8243,1934.0704,,68,248,,,,,,,,,,,,,,,,bars/029.png,bars/mask002.png,,,,,,,,,,,,2,1,,,,,,,8,1,7,1,,,,,,,,,,,1933.3241,1933.8242,1934.0706,1938.2414,space,4.1501,,1938.2415,22,23,1939.2364,1939.2364,1939.2447,,,,0,4,4,4,1,90,45,,,,,,,,
,,60dc4394e9e27efa6657582b,65af5573fa16a017ecb780ba,2024-01-23_07h59.08.416,bars,2023.2.3,Win32,60.24096386,657b66ea316d21385b68909f,,,,,,,,,,,1939.2449,1940.2361,,,1940.7252,1940.9702,,118,118,,,,,,,,,,,,,,,,bars/024.png,bars/mask006.png,,,,,,,,,,,,6,1,,,,,,,6,0,6,0,,,,,,,,,,,1940.2362,1940.7252,1940.9702,1943.7936,space,2.8006,,1943.7936,2,52,1944.7874,1944.7876,1944.799,,,,0,5,5,5,1,120,170,,,,,,,,
,,60dc4394e9e27efa6657582b,65af5573fa16a017ecb780ba,2024-01-23_07h59.08.416,bars,2023.2.3,Win32,60.24096386,657b66ea316d21385b68909f,,,,,,,,,,,1944.7992,1945.8038,,,1946.3044,1946.5542,,32,32,,,,,,,,,,,,,,,,bars/009.png,bars/mask007.png,,,,,,,,,,,,3,1,,,,,,,8,0,7,1,,,,,,,,,,,1945.8039,1946.3039,1946.5544,1949.1925,space,2.6168,,1949.1925,17,73,1950.1903,1950.1904,1950.1915,,,,0,6,6,6,1,15,105,,,,,,,,
,,60dc4394e9e27efa6657582b,65af5573fa16a017ecb780ba,2024-01-23_07h59.08.416,bars,2023.2.3,Win32,60.24096386,657b66ea316d21385b68909f,,,,,,,,,,,1950.1919,1951.1925,,,1951.6929,1951.9403,,164,-16,,,,,,,,,,,,,,,,bars/021.png,bars/mask000.png,,,,,,,,,,,,7,1,,,,,,,10,2,10,3,,,,,,,,,,,1951.1925,1951.6929,1951.9404,1955.3918,space,3.4331,,1955.3918,9,86,1956.3877,1956.3878,1956.4009,,,,0,7,7,7,1,155,70,,,,,,,,
,,60dc4394e9e27efa6657582b,65af5573fa16a017ecb780ba,2024-01-23_07h59.08.416,bars,2023.2.3,Win32,60.24096386,657b66ea316d21385b68909f,,,,,,,,,,,1956.4011,1957.4045,,,1957.9044,1958.1543,,14,194,,,,,,,,,,,,,,,,bars/049.png,bars/mask000.png,,,,,,,,,,,,0,1,,,,,,,8,0,9,0,,,,,,,,,,,1957.4047,1957.9043,1958.1546,1961.8225,space,3.641,,1961.8226,34,79,1962.8213,1962.8214,1962.8347,,,,0,8,8,8,1,160,115,,,,,,,,
,,60dc4394e9e27efa6657582b,65af5573fa16a017ecb780ba,2024-01-23_07h59.08.416,bars,2023.2.3,Win32,60.24096386,657b66ea316d21385b68909f,,,,,,,,,,,1962.8349,1963.8379,,,1964.3267,1964.5713,,67,67,,,,,,,,,,,,,,,,bars/020.png,bars/mask004.png,,,,,,,,,,,,0,1,,,,,,,6,0,8,0,,,,,,,,,,,1963.8379,1964.3267,1964.5713,1966.5553,space,1.9519,,1966.5554,48,77,1967.5544,1967.5545,1967.5561,,,,0,9,9,9,1,115,170,,,,,,,,
,,60dc4394e9e27efa6657582b,65af5573fa16a017ecb780ba,2024-01-23_07h59.08.416,bars,2023.2.3,Win32,60.24096386,657b66ea316d21385b68909f,,,,,,,,,,,1967.5564,1968.5603,,,1969.0554,1969.305,,27,207,,,,,,,,,,,,,,,,bars/035.png,bars/mask006.png,,,,,,,,,,,,0,1,,,,,,,4,2,3,0,,,,,,,,,,,1968.5604,1969.0553,1969.3051,1974.0889,space,4.7572,,1974.089,32,33,1975.0888,1975.089,1975.1074,,,,0,10,10,10,1,175,60,,,,,,,,
,,60dc4394e9e27efa6657582b,65af5573fa16a017ecb780ba,2024-01-23_07h59.08.416,bars,2023.2.3,Win32,60.24096386,657b66ea316d21385b68909f,,,,,,,,,,,1975.1077,1976.1053,,,1976.6077,1976.8611,,71,71,,,,,,,,,,,,,,,,bars/014.png,bars/mask003.png,,,,,,,,,,,,1,1,,,,,,,2,0,2,1,,,,,,,,,,,1976.1053,1976.6077,1976.8611,1978.7121,space,1.8372,,1978.7123,9,71,1979.7106,1979.7107,1979.7117,,,,0,11,11,11,1,80,0,,,,,,,,
,,60dc4394e9e27efa6657582b,65af5573fa16a017ecb780ba,2024-01-23_07h59.08.416,bars,2023.2.3,Win32,60.24096386,657b66ea316d21385b68909f,,,,,,,,,,,1979.7119,1980.7097,,,1981.2099,1981.4609,,132,-48,,,,,,,,,,,,,,,,bars/015.png,bars/mask001.png,,,,,,,,,,,,2,1,,,,,,,4,2,6,2,,,,,,,,,,,1980.7097,1981.2098,1981.461,1986.5945,space,5.1169,,1986.5945,22,28,1987.5894,1987.5895,1987.6044,,,,0,12,12,12,1,110,160,,,,,,,,
,,60dc4394e9e27efa6657582b,65af5573fa16a017ecb780ba,2024-01-23_07h59.08.416,bars,2023.2.3,Win32,60.24096386,657b66ea316d21385b68909f,,,,,,,,,,,1987.6046,1988.6063,,,1989.1063,1989.3571,,156,156,,,,,,,,,,,,,,,,bars/037.png,bars/mask002.png,,,,,,,,,,,,2,1,,,,,,,2,0,2,2,,,,,,,,,,,1988.6063,1989.1062,1989.3572,1990.9627,space,1.5843,,1990.9628,6,51,1991.9571,1991.9572,1991.9589,,,,0,13,13,13,1,150,105,,,,,,,,
,,60dc4394e9e27efa6657582b,65af5573fa16a017ecb780ba,2024-01-23_07h59.08.416,bars,2023.2.3,Win32,60.24096386,657b66ea316d21385b68909f,,,,,,,,,,,1991.9594,1992.9566,,,1993.4565,1993.707,,48,48,,,,,,,,,,,,,,,,bars/030.png,bars/mask006.png,,,,,,,,,,,,0,2,,,,,,,4,0,6,0,,,,,,,,,,,1992.9566,1993.4564,1993.707,1998.3567,space,4.6247,,1998.3568,88,17,1999.3565,1999.3566,1999.3665,,,,0,14,14,14,1,140,65,,,,,,,,
,,60dc4394e9e27efa6657582b,65af5573fa16a017ecb780ba,2024-01-23_07h59.08.416,bars,2023.2.3,Win32,60.24096386,657b66ea316d21385b68909f,,,,,,,,,,,1999.3666,2000.357,,,2000.857,2001.1072,,56,56,,,,,,,,,,,,,,,,bars/048.png,bars/mask009.png,,,,,,,,,,,,5,1,,,,,,,6,2,6,3,,,,,,,,,,,2000.3571,2000.857,2001.1073,2002.9799,space,1.8665,,2002.9799,6,61,2003.9741,2003.9742,2003.977,,,,0,15,15,15,1,50,175,,,,,,,,
,,60dc4394e9e27efa6657582b,65af5573fa16a017ecb780ba,2024-01-23_07h59.08.416,bars,2023.2.3,Win32,60.24096386,657b66ea316d21385b68909f,,,,,,,,,,,2003.9773,2004.9738,,,2005.4739,2005.7238,,14,194,,,,,,,,,,,,,,,,bars/007.png,bars/mask006.png,,,,,,,,,,,,3,1,,,,,,,8,4,9,2,,,,,,,,,,,2004.974,2005.4738,2005.7239,2008.7409,space,2.9908,,2008.741,19,41,2009.7294,2009.7294,2009.7443,,,,0,16,16,16,1,175,55,,,,,,,,
,,60dc4394e9e27efa6657582b,65af5573fa16a017ecb780ba,2024-01-23_07h59.08.416,bars,2023.2.3,Win32,60.24096386,657b66ea316d21385b68909f,,,,,,,,,,,2009.7444,2010.7408,,,2011.2409,2011.4908,,15,15,,,,,,,,,,,,,,,,bars/009.png,bars/mask004.png,,,,,,,,,,,,5,1,,,,,,,6,2,5,1,,,,,,,,,,,2010.7409,2011.2408,2011.4908,2014.3084,space,2.7927,,2014.3085,0,90,2015.3125,2015.3126,2015.3268,,,,0,17,17,17,1,15,105,,,,,,,,
,,60dc4394e9e27efa6657582b,65af5573fa16a017ecb780ba,2024-01-23_07h59.08.416,bars,2023.2.3,Win32,60.24096386,657b66ea316d21385b68909f,,,,,,,,,,,2015.3272,2016.3248,,,2016.8247,2017.0748,,20,20,,,,,,,,,,,,,,,,bars/007.png,bars/mask004.png,,,,,,,,,,,,1,1,,,,,,,4,0,4,0,,,,,,,,,,,2016.3249,2016.8246,2017.0749,2019.7308,space,2.6342,,2019.7309,25,35,2020.7266,2020.7266,2020.7272,,,,0,18,18,18,1,175,55,,,,,,,,
,,60dc4394e9e27efa6657582b,65af5573fa16a017ecb780ba,2024-01-23_07h59.08.416,bars,2023.2.3,Win32,60.24096386,657b66ea316d21385b68909f,,,,,,,,,,,2020.7276,2021.7307,,,2022.2238,2022.4748,,36,216,,,,,,,,,,,,,,,,bars/026.png,bars/mask005.png,,,,,,,,,,,,6,1,,,,,,,6,2,6,2,,,,,,,,,,,2021.7308,2022.2238,2022.475,2025.2135,space,2.7175,,2025.2135,1,49,2026.2079,2026.2081,2026.2171,,,,0,19,19,19,1,35,85,,,,,,,,
,,60dc4394e9e27efa6657582b,65af5573fa16a017ecb780ba,2024-01-23_07h59.08.416,bars,2023.2.3,Win32,60.24096386,657b66ea316d21385b68909f,,,,,,,,,,,2026.2173,2027.2082,,,2027.7087,2027.9582,,26,26,,,,,,,,,,,,,,,,bars/018.png,bars/mask007.png,,,,,,,,,,,,0,1,,,,,,,8,4,7,6,,,,,,,,,,,2027.2083,2027.7085,2027.9583,2046.3768,space,18.3869,,2046.377,56,64,2047.3762,2047.3762,2047.39,,,,0,20,20,20,1,150,90,,,,,,,,
,,60dc4394e9e27efa6657582b,65af5573fa16a017ecb780ba,2024-01-23_07h59.08.416,bars,2023.2.3,Win32,60.24096386,657b66ea316d21385b68909f,,,,,,,,,,,2047.3903,2048.3949,,,2048.8927,2049.1426,,55,55,,,,,,,,,,,,,,,,bars/018.png,bars/mask003.png,,,,,,,,,,,,0,2,,,,,,,10,6,9,8,,,,,,,,,,,2048.3949,2048.8926,2049.1427,2056.1665,space,7.0026,,2056.1665,85,35,2057.1603,2057.1605,2057.1758,,,,0,21,21,21,1,150,90,,,,,,,,
,,60dc4394e9e27efa6657582b,65af5573fa16a017ecb780ba,2024-01-23_07h59.08.416,bars,2023.2.3,Win32,60.24096386,657b66ea316d21385b68909f,,,,,,,,,,,2057.1762,2058.1768,,,2058.6648,2058.9146,,12,12,,,,,,,,,,,,,,,,bars/041.png,bars/mask006.png,,,,,,,,,,,,6,1,,,,,,,8,4,8,4,,,,,,,,,,,2058.177,2058.6648,2058.9146,2072.5114,space,13.5729,,2072.5116,8,73,2073.4992,2073.4992,2073.5137,,,,0,22,22,22,1,20,85,,,,,,,,
,,60dc4394e9e27efa6657582b,65af5573fa16a017ecb780ba,2024-01-23_07h59.08.416,bars,2023.2.3,Win32,60.24096386,657b66ea316d21385b68909f,,,,,,,,,,,2073.5138,2074.5111,,,2075.016,2075.2609,,63,63,,,,,,,,,,,,,,,,bars/016.png,bars/mask006.png,,,,,,,,,,,,2,1,,,,,,,10,2,10,1,,,,,,,,,,,2074.5112,2075.0159,2075.2609,2077.0335,space,1.7668,,2077.0336,23,78,2078.0274,2078.0274,2078.0359,,,,0,23,23,23,1,40,165,,,,,,,,
,,60dc4394e9e27efa6657582b,65af5573fa16a017ecb780ba,2024-01-23_07h59.08.416,bars,2023.2.3,Win32,60.24096386,657b66ea316d21385b68909f,,,,,,,,,,,2078.0361,2079.0275,,,2079.5282,2079.7776,,85,85,,,,,,,,,,,,,,,,bars/011.png,bars/mask002.png,,,,,,,,,,,,4,2,,,,,,,10,4,10,4,,,,,,,,,,,2079.0277,2079.5282,2079.7777,2086.3793,space,6.5929,,2086.3794,75,0,2087.3787,2087.3788,2087.3974,,,,0,24,24,24,1,160,85,,,,,,,,
,,60dc4394e9e27efa6657582b,65af5573fa16a017ecb780ba,2024-01-23_07h59.08.416,bars,2023.2.3,Win32,60.24096386,657b66ea316d21385b68909f,,,,,,,,,,,2087.3975,2088.395,,,2088.895,2089.1453,,78,78,,,,,,,,,,,,,,,,bars/007.png,bars/mask009.png,,,,,,,,,,,,1,2,,,,,,,10,6,9,5,,,,,,,,,,,2088.3951,2088.895,2089.1454,2093.096,space,3.9439,,2093.0961,83,23,2094.0956,2094.0958,2094.1108,,,,0,25,25,25,1,175,55,,,,,,,,
,,60dc4394e9e27efa6657582b,65af5573fa16a017ecb780ba,2024-01-23_07h59.08.416,bars,2023.2.3,Win32,60.24096386,657b66ea316d21385b68909f,,,,,,,,,,,2094.1111,2095.112,,,2095.6125,2095.8622,,172,172,,,,,,,,,,,,,,,,bars/002.png,bars/mask008.png,,,,,,,,,,,,0,1,,,,,,,10,8,10,9,,,,,,,,,,,2095.112,2095.6124,2095.8624,2103.3185,space,7.4344,,2103.3185,42,87,2104.3126,2104.3127,2104.3312,,,,0,26,26,26,1,130,85,,,,,,,,
,,60dc4394e9e27efa6657582b,65af5573fa16a017ecb780ba,2024-01-23_07h59.08.416,bars,2023.2.3,Win32,60.24096386,657b66ea316d21385b68909f,,,,,,,,,,,2104.3316,2105.3296,,,2105.835,2106.0797,,69,69,,,,,,,,,,,,,,,,bars/008.png,bars/mask002.png,,,,,,,,,,,,0,1,,,,,,,10,10,10,10,,,,,,,,,,,2105.3297,2105.835,2106.0798,2109.1184,space,3.0171,,2109.1184,41,69,2110.1131,2110.1132,2110.1316,,,,0,27,27,27,1,110,0,,,,,,,,
,,60dc4394e9e27efa6657582b,65af5573fa16a017ecb780ba,2024-01-23_07h59.08.416,bars,2023.2.3,Win32,60.24096386,657b66ea316d21385b68909f,,,,,,,,,,,2110.1317,2111.1301,,,2111.6302,2111.8799,,109,109,,,,,,,,,,,,,,,,bars/024.png,bars/mask000.png,,,,,,,,,,,,5,1,,,,,,,8,10,8,9,,,,,,,,,,,2111.1302,2111.63,2111.8799,2117.6194,space,5.7178,,2117.6195,11,61,2118.6137,2118.6137,2118.6303,,,,0,28,28,28,1,120,170,,,,,,,,
,,60dc4394e9e27efa6657582b,65af5573fa16a017ecb780ba,2024-01-23_07h59.08.416,bars,2023.2.3,Win32,60.24096386,657b66ea316d21385b68909f,,,,,,,,,,,2118.6308,2119.63,,,2120.1302,2120.3854,,7,7,,,,,,,,,,,,,,,,bars/033.png,bars/mask009.png,,,,,,,,,,,,2,1,,,,,,,6,8,5,8,,,,,,,,,,,2119.6301,2120.1301,2120.3855,2128.3361,space,7.9341,,2128.3361,18,32,2129.3308,2129.3309,2129.344,,,,0,29,29,29,1,25,155,,,,,,,,
,,60dc4394e9e27efa6657582b,65af5573fa16a017ecb780ba,2024-01-23_07h59.08.416,bars,2023.2.3,Win32,60.24096386,657b66ea316d21385b68909f,,,,,,,,,,,2129.3441,2130.3477,,,2130.8354,2131.081,,168,168,,,,,,,,,,,,,,,,bars/004.png,bars/mask004.png,,,,,,,,,,,,0,1,,,,,,,4,10,5,10,,,,,,,,,,,2130.3478,2130.8354,2131.0811,2138.8145,space,7.7113,,2138.8146,37,43,2139.815,2139.8151,2139.8288,,,,0,30,30,30,1,25,125,,,,,,,,
,,60dc4394e9e27efa6657582b,65af5573fa16a017ecb780ba,2024-01-23_07h59.08.416,bars,2023.2.3,Win32,60.24096386,657b66ea316d21385b68909f,,,,,,,,,,,2139.8289,2140.8192,,,2141.3148,2141.5648,,175,175,,,,,,,,,,,,,,,,bars/012.png,bars/mask004.png,,,,,,,,,,,,3,2,,,,,,,2,8,1,9,,,,,,,,,,,2140.8192,2141.3147,2141.5649,2149.622,space,8.0349,,2149.622,85,20,2150.6185,2150.6187,2150.6343,,,,0,31,31,31,1,90,15,,,,,,,,
,,60dc4394e9e27efa6657582b,65af5573fa16a017ecb780ba,2024-01-23_07h59.08.416,bars,2023.2.3,Win32,60.24096386,657b66ea316d21385b68909f,,,,,,,,,,,2150.6345,2151.6316,,,2152.132,2152.3702,,5,5,,,,,,,,,,,,,,,,bars/033.png,bars/mask008.png,,,,,,,,,,,,0,1,,,,,,,0,10,0,7,,,,,,,,,,,2151.6317,2152.1318,2152.3702,2161.3503,space,8.9573,,2161.3504,20,30,2162.3485,2162.3485,2162.3688,,,,0,32,32,32,1,25,155,,,,,,,,
,,60dc4394e9e27efa6657582b,65af5573fa16a017ecb780ba,2024-01-23_07h59.08.416,bars,2023.2.3,Win32,60.24096386,657b66ea316d21385b68909f,,,,,,,,,,,2162.369,2163.3656,,,2163.8659,2164.1152,,26,26,,,,,,,,,,,,,,,,bars/026.png,bars/mask003.png,,,,,,,,,,,,1,1,,,,,,,2,8,2,7,,,,,,,,,,,2163.3656,2163.8659,2164.1152,2173.8553,space,9.7175,,2173.8554,9,59,2174.8501,2174.8502,2174.8733,,,,0,33,33,33,1,35,85,,,,,,,,
,,60dc4394e9e27efa6657582b,65af5573fa16a017ecb780ba,2024-01-23_07h59.08.416,bars,2023.2.3,Win32,60.24096386,657b66ea316d21385b68909f,,,,,,,,,,,2174.8734,2175.8666,,,2176.3659,2176.6159,,38,38,,,,,,,,,,,,,,,,bars/009.png,bars/mask007.png,,,,,,,,,,,,0,1,,,,,,,0,10,1,10,,,,,,,,,,,2175.8666,2176.3659,2176.616,2180.6718,space,4.0351,,2180.6718,23,67,2181.6667,2181.6669,2181.6748,,,,0,34,34,34,1,15,105,,,,,,,,
,,60dc4394e9e27efa6657582b,65af5573fa16a017ecb780ba,2024-01-23_07h59.08.416,bars,2023.2.3,Win32,60.24096386,657b66ea316d21385b68909f,,,,,,,,,,,2181.675,2182.6663,,,2183.1672,2183.4173,,41,41,,,,,,,,,,,,,,,,bars/005.png,bars/mask006.png,,,,,,,,,,,,0,1,,,,,,,2,10,1,10,,,,,,,,,,,2182.6663,2183.1672,2183.4174,2189.6906,space,6.2528,,2189.6906,31,81,2190.6843,2190.6844,2190.6996,,,,0,35,35,35,1,10,140,,,,,,,,
,,60dc4394e9e27efa6657582b,65af5573fa16a017ecb780ba,2024-01-23_07h59.08.416,bars,2023.2.3,Win32,60.24096386,657b66ea316d21385b68909f,,,,,,,,,,,2190.7002,2191.6899,,,2192.1892,2192.4348,,64,64,,,,,,,,,,,,,,,,bars/013.png,bars/mask005.png,,,,,,,,,,,,3,1,,,,,,,4,10,4,9,,,,,,,,,,,2191.6899,2192.189,2192.4349,2199.7247,space,7.2683,,2199.7247,11,54,2200.7185,2200.7187,2200.7304,,,,0,36,36,36,1,75,10,,,,,,,,
,,60dc4394e9e27efa6657582b,65af5573fa16a017ecb780ba,2024-01-23_07h59.08.416,bars,2023.2.3,Win32,60.24096386,657b66ea316d21385b68909f,,,,,,,,,,,2200.7306,2201.7236,,,2202.218,2202.4741,,67,67,,,,,,,,,,,,,,,,bars/028.png,bars/mask007.png,,,,,,,,,,,,2,1,,,,,,,6,10,6,9,,,,,,,,,,,2201.7236,2202.2179,2202.4742,2216.4262,space,13.9357,,2216.4263,22,53,2217.4188,2217.4188,2217.4314,,,,0,37,37,37,1,45,120,,,,,,,,
,,60dc4394e9e27efa6657582b,65af5573fa16a017ecb780ba,2024-01-23_07h59.08.416,bars,2023.2.3,Win32,60.24096386,657b66ea316d21385b68909f,,,,,,,,,,,2217.4317,2218.4196,,,2218.9189,2219.1569,,111,111,,,,,,,,,,,,,,,,bars/024.png,bars/mask004.png,,,,,,,,,,,,6,1,,,,,,,8,10,9,8,,,,,,,,,,,2218.4197,2218.9189,2219.1569,2223.9922,space,4.8197,,2223.9923,9,59,2224.9862,2224.9862,2224.9974,,,,0,38,38,38,1,120,170,,,,,,,,
,,60dc4394e9e27efa6657582b,65af5573fa16a017ecb780ba,2024-01-23_07h59.08.416,bars,2023.2.3,Win32,60.24096386,657b66ea316d21385b68909f,,,,,,,,,,,2224.9975,2225.9865,,,2226.4865,2226.7409,,54,54,,,,,,,,,,,,,,,,bars/001.png,bars/mask006.png,,,,,,,,,,,,0,2,,,,,,,6,8,7,9,,,,,,,,,,,2225.9866,2226.4864,2226.741,2234.187,space,7.4276,,2234.1871,76,31,2235.1871,2235.1873,2235.2058,,,,0,39,39,39,1,130,85,,,,,,,,
,,60dc4394e9e27efa6657582b,65af5573fa16a017ecb780ba,2024-01-23_07h59.08.416,bars,2023.2.3,Win32,60.24096386,657b66ea316d21385b68909f,,,,,,,,,,,2235.2059,2236.2076,,,2236.7034,2236.9537,,62,62,,,,,,,,,,,,,,,,bars/039.png,bars/mask009.png,,,,,,,,,,,,0,2,,,,,,,4,6,4,6,,,,,,,,,,,2236.2076,2236.7034,2236.9537,2243.8384,space,6.8626,,2243.8385,67,43,2244.8374,2244.8375,2244.8492,,,,0,40,40,40,1,175,105,,,,,,,,
,,60dc4394e9e27efa6657582b,65af5573fa16a017ecb780ba,2024-01-23_07h59.08.416,bars,2023.2.3,Win32,60.24096386,657b66ea316d21385b68909f,,,,,,,,,,,2244.8498,2245.8375,,,2246.3379,2246.5873,,134,134,,,,,,,,,,,,,,,,bars/036.png,bars/mask008.png,,,,,,,,,,,,4,1,,,,,,,6,8,6,9,,,,,,,,,,,2245.8375,2246.3377,2246.5873,2251.3549,space,4.7395,,2251.3551,11,66,2252.3547,2252.3547,2252.3697,,,,0,41,41,41,1,145,20,,,,,,,,
,,60dc4394e9e27efa6657582b,65af5573fa16a017ecb780ba,2024-01-23_07h59.08.416,bars,2023.2.3,Win32,60.24096386,657b66ea316d21385b68909f,,,,,,,,,,,2252.3701,2253.3712,,,2253.8769,2254.121,,124,124,,,,,,,,,,,,,,,,bars/020.png,bars/mask003.png,,,,,,,,,,,,2,1,,,,,,,4,10,3,10,,,,,,,,,,,2253.3713,2253.8769,2254.1211,2259.3916,space,5.2642,,2259.3917,9,46,2260.3883,2260.3886,2260.4026,,,,0,42,42,42,1,115,170,,,,,,,,
,,60dc4394e9e27efa6657582b,65af5573fa16a017ecb780ba,2024-01-23_07h59.08.416,bars,2023.2.3,Win32,60.24096386,657b66ea316d21385b68909f,,,,,,,,,,,2260.4028,2261.3926,,,2261.8895,2262.1384,,19,19,,,,,,,,,,,,,,,,bars/007.png,bars/mask003.png,,,,,,,,,,,,0,1,,,,,,,2,10,2,10,,,,,,,,,,,2261.3926,2261.8892,2262.1385,2271.8787,space,9.7338,,2271.8787,24,36,2272.8734,2272.8738,2272.8862,,,,0,43,43,43,1,175,55,,,,,,,,
,,60dc4394e9e27efa6657582b,65af5573fa16a017ecb780ba,2024-01-23_07h59.08.416,bars,2023.2.3,Win32,60.24096386,657b66ea316d21385b68909f,,,,,,,,,,,2272.8863,2273.8778,,,2274.3722,2274.6226,,103,103,,,,,,,,,,,,,,,,bars/044.png,bars/mask002.png,,,,,,,,,,,,0,1,,,,,,,0,10,1,10,,,,,,,,,,,2273.8778,2274.3722,2274.6226,2279.9556,space,5.3008,,2279.9557,28,52,2280.9603,2280.9603,2280.9664,,,,0,44,44,44,1,75,155,,,,,,,,
,,60dc4394e9e27efa6657582b,65af5573fa16a017ecb780ba,2024-01-23_07h59.08.416,bars,2023.2.3,Win32,60.24096386,657b66ea316d21385b68909f,,,,,,,,,,,2280.9665,2281.9616,,,2282.4563,2282.706,,60,60,,,,,,,,,,,,,,,,bars/000.png,bars/mask009.png,,,,,,,,,,,,0,1,,,,,,,2,10,1,9,,,,,,,,,,,2281.9616,2282.4562,2282.7061,2287.8607,space,5.1478,,2287.8607,20,85,2288.8568,2288.8568,2288.8731,,,,0,45,45,45,1,40,145,,,,,,,,
,,60dc4394e9e27efa6657582b,65af5573fa16a017ecb780ba,2024-01-23_07h59.08.416,bars,2023.2.3,Win32,60.24096386,657b66ea316d21385b68909f,,,,,,,,,,,2288.8733,2289.8777,,,2290.3734,2290.6232,,120,120,,,,,,,,,,,,,,,,bars/024.png,bars/mask009.png,,,,,,,,,,,,0,1,,,,,,,0,10,0,10,,,,,,,,,,,2289.8778,2290.3732,2290.6233,2299.2738,space,8.6245,,2299.2738,0,50,2300.273,2300.273,2300.2802,,,,0,46,46,46,1,120,170,,,,,,,,
,,60dc4394e9e27efa6657582b,65af5573fa16a017ecb780ba,2024-01-23_07h59.08.416,bars,2023.2.3,Win32,60.24096386,657b66ea316d21385b68909f,,,,,,,,,,,2300.2803,2301.2736,,,2301.7741,2302.013,,34,34,,,,,,,,,,,,,,,,bars/016.png,bars/mask002.png,,,,,,,,,,,,2,1,,,,,,,2,8,3,7,,,,,,,,,,,2301.2737,2301.7741,2302.013,2307.7788,space,5.7497,,2307.7788,6,49,2308.7743,2308.7744,2308.7812,,,,0,47,47,47,1,40,165,,,,,,,,
,,60dc4394e9e27efa6657582b,65af5573fa16a017ecb780ba,2024-01-23_07h59.08.416,bars,2023.2.3,Win32,60.24096386,657b66ea316d21385b68909f,,,,,,,,,,,2308.7814,2309.7744,,,2310.2741,2310.5238,,29,29,,,,,,,,,,,,,,,,bars/032.png,bars/mask007.png,,,,,,,,,,,,6,2,,,,,,,4,10,5,8,,,,,,,,,,,2309.7745,2310.274,2310.5239,2315.681,space,5.1348,,2315.6811,84,9,2316.6774,2316.6775,2316.6909,,,,0,48,48,48,1,125,20,,,,,,,,
,,60dc4394e9e27efa6657582b,65af5573fa16a017ecb780ba,2024-01-23_07h59.08.416,bars,2023.2.3,Win32,60.24096386,657b66ea316d21385b68909f,,,,,,,,,,,2316.6912,2317.6917,,,2318.1973,2318.4416,,147,147,,,,,,,,,,,,,,,,bars/024.png,bars/mask007.png,,,,,,,,,,,,2,2,,,,,,,6,8,6,10,,,,,,,,,,,2317.6918,2318.1972,2318.4417,2325.2918,space,6.819,,2325.2919,27,23,2326.2918,2326.2918,2326.3,,,,0,49,49,49,1,120,170,,,,,,,,
,,60dc4394e9e27efa6657582b,65af5573fa16a017ecb780ba,2024-01-23_07h59.08.416,bars,2023.2.3,Win32,60.24096386,657b66ea316d21385b68909f,,,,,,,,,,,,,,,,,,,,,,,,,,,,,,,,,,,,,,,,,,,,,,,,,,,,,,,,,,,,,,,,,,,,,,,,,,,,,,,,,,,,,,,,,,,,,2326.3,2386.2949,0,3,3,4,1,sequence_tables/blk045.csv
,,60dc4394e9e27efa6657582b,65af5573fa16a017ecb780ba,2024-01-23_07h59.08.416,bars,2023.2.3,Win32,60.24096386,657b66ea316d21385b68909f,,,,,,,,,,,2395.3064,2396.2958,,,2396.7962,2397.0461,,143,143,,,,,,,,,,,,,,,,bars/004.png,bars/mask007.png,,,,,,,,,,,,3,2,,,,,,,1,9,1,7,,,,,,2386.3062,2395.2967,space,8.9853,,2396.2958,2396.7961,2397.0462,2402.7297,space,5.6692,,2402.7298,62,18,2403.7303,2403.7304,2403.7454,,,,0,0,0,0,1,25,125,,,,,,,,
,,60dc4394e9e27efa6657582b,65af5573fa16a017ecb780ba,2024-01-23_07h59.08.416,bars,2023.2.3,Win32,60.24096386,657b66ea316d21385b68909f,,,,,,,,,,,2403.7457,2404.7466,,,2405.2457,2405.4964,,47,47,,,,,,,,,,,,,,,,bars/008.png,bars/mask004.png,,,,,,,,,,,,0,2,,,,,,,3,7,5,6,,,,,,,,,,,2404.7466,2405.2457,2405.4965,2409.5633,space,4.051,,2409.5634,63,47,2410.5633,2410.5633,2410.5742,,,,0,1,1,1,1,110,0,,,,,,,,
,,60dc4394e9e27efa6657582b,65af5573fa16a017ecb780ba,2024-01-23_07h59.08.416,bars,2023.2.3,Win32,60.24096386,657b66ea316d21385b68909f,,,,,,,,,,,2410.5744,2411.5635,,,2412.0636,2412.3136,,55,55,,,,,,,,,,,,,,,,bars/032.png,bars/mask001.png,,,,,,,,,,,,0,2,,,,,,,5,9,4,9,,,,,,,,,,,2411.5635,2412.0635,2412.3137,2419.0143,space,6.6835,,2419.0145,70,35,2420.0139,2420.0139,2420.0271,,,,0,2,2,2,1,125,20,,,,,,,,
,,60dc4394e9e27efa6657582b,65af5573fa16a017ecb780ba,2024-01-23_07h59.08.416,bars,2023.2.3,Win32,60.24096386,657b66ea316d21385b68909f,,,,,,,,,,,2420.0273,2421.03,,,2421.5313,2421.7808,,163,-17,,,,,,,,,,,,,,,,bars/036.png,bars/mask007.png,,,,,,,,,,,,2,1,,,,,,,3,7,5,10,,,,,,,,,,,2421.03,2421.5311,2421.7808,2453.7489,space,31.954,,2453.749,18,37,2454.7493,2454.7493,2454.7658,,,,0,3,3,3,1,145,20,,,,,,,,
,,60dc4394e9e27efa6657582b,65af5573fa16a017ecb780ba,2024-01-23_07h59.08.416,bars,2023.2.3,Win32,60.24096386,657b66ea316d21385b68909f,,,,,,,,,,,2454.766,2455.7657,,,2456.2653,2456.5161,,154,-26,,,,,,,,,,,,,,,,bars/034.png,bars/mask007.png,,,,,,,,,,,,0,1,,,,,,,1,5,1,4,,,,,,,,,,,2455.7658,2456.2653,2456.5161,2463.8667,space,7.3405,,2463.8668,29,89,2464.8661,2464.8662,2464.8789,,,,0,4,4,4,1,125,65,,,,,,,,
,,60dc4394e9e27efa6657582b,65af5573fa16a017ecb780ba,2024-01-23_07h59.08.416,bars,2023.2.3,Win32,60.24096386,657b66ea316d21385b68909f,,,,,,,,,,,2464.8791,2465.8833,,,2466.383,2466.6334,,14,194,,,,,,,,,,,,,,,,bars/023.png,bars/mask000.png,,,,,,,,,,,,4,1,,,,,,,3,3,5,1,,,,,,,,,,,2465.8833,2466.383,2466.6336,2472.6673,space,6.018,,2472.6674,6,79,2473.6671,2473.6671,2473.6828,,,,0,5,5,5,1,20,115,,,,,,,,
,,60dc4394e9e27efa6657582b,65af5573fa16a017ecb780ba,2024-01-23_07h59.08.416,bars,2023.2.3,Win32,60.24096386,657b66ea316d21385b68909f,,,,,,,,,,,2473.6831,2474.6838,,,2475.1841,2475.4338,,68,68,,,,,,,,,,,,,,,,bars/001.png,bars/mask002.png,,,,,,,,,,,,1,2,,,,,,,5,1,7,2,,,,,,,,,,,2474.6839,2475.1841,2475.4338,2482.4342,space,6.9844,,2482.4343,62,17,2483.4342,2483.4342,2483.4526,,,,0,6,6,6,1,130,85,,,,,,,,
,,60dc4394e9e27efa6657582b,65af5573fa16a017ecb780ba,2024-01-23_07h59.08.416,bars,2023.2.3,Win32,60.24096386,657b66ea316d21385b68909f,,,,,,,,,,,2483.453,2484.4512,,,2484.9509,2485.2009,,31,31,,,,,,,,,,,,,,,,bars/003.png,bars/mask004.png,,,,,,,,,,,,2,1,,,,,,,3,3,3,3,,,,,,,,,,,2484.4512,2484.9509,2485.2009,2509.1366,space,23.9229,,2509.1368,6,71,2510.1361,2510.1361,2510.1552,,,,0,7,7,7,1,25,140,,,,,,,,
,,60dc4394e9e27efa6657582b,65af5573fa16a017ecb780ba,2024-01-23_07h59.08.416,bars,2023.2.3,Win32,60.24096386,657b66ea316d21385b68909f,,,,,,,,,,,2510.1555,2511.1521,,,2511.6537,2511.9022,,11,191,,,,,,,,,,,,,,,,bars/007.png,bars/mask008.png,,,,,,,,,,,,1,1,,,,,,,5,1,3,1,,,,,,,,,,,2511.1522,2511.6536,2511.9023,2520.8364,space,8.9187,,2520.8366,16,44,2521.8362,2521.8363,2521.8494,,,,0,8,8,8,1,175,55,,,,,,,,
,,60dc4394e9e27efa6657582b,65af5573fa16a017ecb780ba,2024-01-23_07h59.08.416,bars,2023.2.3,Win32,60.24096386,657b66ea316d21385b68909f,,,,,,,,,,,2521.8495,2522.8535,,,2523.3532,2523.6032,,140,140,,,,,,,,,,,,,,,,bars/020.png,bars/mask001.png,,,,,,,,,,,,0,1,,,,,,,3,3,2,5,,,,,,,,,,,2522.8535,2523.353,2523.6033,2534.2201,space,10.6041,,2534.2201,25,30,2535.2205,2535.2206,2535.2358,,,,0,9,9,9,1,115,170,,,,,,,,
,,60dc4394e9e27efa6657582b,65af5573fa16a017ecb780ba,2024-01-23_07h59.08.416,bars,2023.2.3,Win32,60.24096386,657b66ea316d21385b68909f,,,,,,,,,,,2535.2361,2536.2368,,,2536.7371,2536.9873,,27,27,,,,,,,,,,,,,,,,bars/005.png,bars/mask004.png,,,,,,,,,,,,0,1,,,,,,,1,1,0,0,,,,,,,,,,,2536.2368,2536.7371,2536.9874,2546.6377,space,9.6362,,2546.6377,17,67,2547.6379,2547.638,2547.6522,,,,0,10,10,10,1,10,140,,,,,,,,
,,60dc4394e9e27efa6657582b,65af5573fa16a017ecb780ba,2024-01-23_07h59.08.416,bars,2023.2.3,Win32,60.24096386,657b66ea316d21385b68909f,,,,,,,,,,,2547.6523,2548.6543,,,2549.1548,2549.4046,,28,208,,,,,,,,,,,,,,,,bars/000.png,bars/mask003.png,,,,,,,,,,,,2,1,,,,,,,3,0,3,0,,,,,,,,,,,2548.6543,2549.1548,2549.4047,2556.2053,space,6.7833,,2556.2054,12,63,2557.2053,2557.2053,2557.219,,,,0,11,11,11,1,40,145,,,,,,,,
