init_variables.started,init_variables.stopped,participant,session,date,expName,psychopyVersion,OS,frameRate,study_id,instruction_exp.started,instruction_exp.stopped,key_resp_8.keys,key_resp_8.rt,key_resp_8.duration,instruction_single.started,instruction_single.stopped,key_resp_2.keys,key_resp_2.rt,key_resp_2.duration,interval.started,interval.stopped,cue_single.started,cue_single.stopped,mask.started,mask.stopped,ori_response_single.started,res_ori,res,ori_response_single.stopped,key_resp_single.keys,key_resp_single.rt,key_resp_single.duration,disp_single.started,disp_single.stopped,key_resp.keys,key_resp.rt,key_resp.duration,single.thisRepN,single.thisTrialN,single.thisN,single.thisIndex,single.ran,ori,path,mask_path,instruction_bandit.started,instruction_bandit.stopped,key_resp_6.keys,key_resp_6.rt,key_resp_6.duration,cue_bandit.started,cue_bandit.stopped,bandit_res.keys,bandit_res.rt,bandit_res.duration,outcome_bandit.started,rew,action,outcome_bandit.stopped,bandit.thisRepN,bandit.thisTrialN,bandit.thisN,bandit.thisIndex,bandit.ran,actual_rew1,actual_rew2,rew1,rew2,instruction_task.started,instruction_task.stopped,key_resp_7.keys,key_resp_7.rt,key_resp_7.duration,wait_ready.started,wait_ready.stopped,key_resp_3.keys,key_resp_3.rt,key_resp_3.duration,cue.started,cue.stopped,ori_response.started,ori_response.stopped,key_resp_5.keys,key_resp_5.rt,key_resp_5.duration,outcome.started,diff1,diff2,outcome.stopped,disp_outcome_practice.started,disp_outcome_practice.stopped,key_resp_4.keys,key_resp_4.rt,key_resp_4.duration,trials.thisRepN,trials.thisTrialN,trials.thisN,trials.thisIndex,trials.ran,ori1,ori2,break_blk.started,break_blk.stopped,block.thisRepN,block.thisTrialN,block.thisN,block.thisIndex,block.ran,condition_file
0.0002,0.0003,6159f4cfb6b9db3c322e8b66,65af554cb73447736efa8ab8,2024-01-23_07h59.01.722,bars,2023.2.3,Win32,61.34969325,657b66ea316d21385b68909f,,,,,,,,,,,,,,,,,,,,,,,,,,,,,,,,,,,,,,,,,,,,,,,,,,,,,,,,,,,,,,,,,,,,,,,,,,,,,,,,,,,,,,,,,,,,,,,,,,,,
,,6159f4cfb6b9db3c322e8b66,65af554cb73447736efa8ab8,2024-01-23_07h59.01.722,bars,2023.2.3,Win32,61.34969325,657b66ea316d21385b68909f,0.0003,12.7407,y,12.7217,,,,,,,,,,,,,,,,,,,,,,,,,,,,,,,,,,,,,,,,,,,,,,,,,,,,,,,,,,,,,,,,,,,,,,,,,,,,,,,,,,,,,,,,,,,,,,,,
,,6159f4cfb6b9db3c322e8b66,65af554cb73447736efa8ab8,2024-01-23_07h59.01.722,bars,2023.2.3,Win32,61.34969325,657b66ea316d21385b68909f,,,,,,12.7408,582.741,space,569.989,,,,,,,,,,,,,,,,,,,,,,,,,,,,,,,,,,,,,,,,,,,,,,,,,,,,,,,,,,,,,,,,,,,,,,,,,,,,,,,,,,,,,,,,,,,
,,6159f4cfb6b9db3c322e8b66,65af554cb73447736efa8ab8,2024-01-23_07h59.01.722,bars,2023.2.3,Win32,61.34969325,657b66ea316d21385b68909f,,,,,,,,,,,582.747,583.748,583.7484,584.2447,584.245,584.4942,584.4945,167,167,594.6452,space,10.0984,,594.6456,602.3285,space,7.64,,0,0,0,0,1,150,bars/single000.png,bars/mask006.png,,,,,,,,,,,,,,,,,,,,,,,,,,,,,,,,,,,,,,,,,,,,,,,,,,,,,,,,,,,,,,,,
,,6159f4cfb6b9db3c322e8b66,65af554cb73447736efa8ab8,2024-01-23_07h59.01.722,bars,2023.2.3,Win32,61.34969325,657b66ea316d21385b68909f,,,,,,,,,,,602.3487,603.3425,603.3426,603.8428,603.8429,604.093,604.0931,168,168,610.7319,space,6.6171,,610.732,615.6593,space,4.8819,,0,1,1,6,1,175,bars/single006.png,bars/mask005.png,,,,,,,,,,,,,,,,,,,,,,,,,,,,,,,,,,,,,,,,,,,,,,,,,,,,,,,,,,,,,,,,
,,6159f4cfb6b9db3c322e8b66,65af554cb73447736efa8ab8,2024-01-23_07h59.01.722,bars,2023.2.3,Win32,61.34969325,657b66ea316d21385b68909f,,,,,,,,,,,615.6788,616.6808,616.6809,617.1754,617.1754,617.4257,617.4257,42,42,620.8923,space,3.4502,,620.8924,637.441,space,16.5061,,0,2,2,3,1,20,bars/single003.png,bars/mask005.png,,,,,,,,,,,,,,,,,,,,,,,,,,,,,,,,,,,,,,,,,,,,,,,,,,,,,,,,,,,,,,,,
,,6159f4cfb6b9db3c322e8b66,65af554cb73447736efa8ab8,2024-01-23_07h59.01.722,bars,2023.2.3,Win32,61.34969325,657b66ea316d21385b68909f,,,,,,,,,,,637.4657,638.457,638.457,638.9568,638.9568,639.2076,639.2077,106,106,643.1065,space,3.8812,,643.1066,646.5905,space,3.4539,,0,3,3,2,1,145,bars/single002.png,bars/mask003.png,,,,,,,,,,,,,,,,,,,,,,,,,,,,,,,,,,,,,,,,,,,,,,,,,,,,,,,,,,,,,,,,
,,6159f4cfb6b9db3c322e8b66,65af554cb73447736efa8ab8,2024-01-23_07h59.01.722,bars,2023.2.3,Win32,61.34969325,657b66ea316d21385b68909f,,,,,,,,,,,646.6086,647.6068,647.6068,648.1068,648.1069,648.3568,648.3569,58,58,651.4564,space,3.0748,,651.4565,655.6057,space,4.127,,0,4,4,5,1,55,bars/single005.png,bars/mask008.png,,,,,,,,,,,,,,,,,,,,,,,,,,,,,,,,,,,,,,,,,,,,,,,,,,,,,,,,,,,,,,,,
,,6159f4cfb6b9db3c322e8b66,65af554cb73447736efa8ab8,2024-01-23_07h59.01.722,bars,2023.2.3,Win32,61.34969325,657b66ea316d21385b68909f,,,,,,,,,,,655.6123,656.6058,656.6058,657.1057,657.1058,657.3558,657.3558,156,156,660.3557,space,2.9929,,660.3558,662.4387,space,2.0593,,0,5,5,1,1,20,bars/single001.png,bars/mask006.png,,,,,,,,,,,,,,,,,,,,,,,,,,,,,,,,,,,,,,,,,,,,,,,,,,,,,,,,,,,,,,,,
,,6159f4cfb6b9db3c322e8b66,65af554cb73447736efa8ab8,2024-01-23_07h59.01.722,bars,2023.2.3,Win32,61.34969325,657b66ea316d21385b68909f,,,,,,,,,,,662.4389,663.439,663.439,663.939,663.9391,664.1892,664.1893,94,94,666.3386,space,2.1395,,666.3386,669.0051,space,2.6414,,0,6,6,4,1,95,bars/single004.png,bars/mask004.png,,,,,,,,,,,,,,,,,,,,,,,,,,,,,,,,,,,,,,,,,,,,,,,,,,,,,,,,,,,,,,,,
,,6159f4cfb6b9db3c322e8b66,65af554cb73447736efa8ab8,2024-01-23_07h59.01.722,bars,2023.2.3,Win32,61.34969325,657b66ea316d21385b68909f,,,,,,,,,,,669.0054,669.9932,669.9932,670.4882,670.4882,670.7383,670.7383,97,97,674.8878,space,4.1354,,674.8878,682.7042,space,7.7861,,0,7,7,9,1,20,bars/single009.png,bars/mask006.png,,,,,,,,,,,,,,,,,,,,,,,,,,,,,,,,,,,,,,,,,,,,,,,,,,,,,,,,,,,,,,,,
,,6159f4cfb6b9db3c322e8b66,65af554cb73447736efa8ab8,2024-01-23_07h59.01.722,bars,2023.2.3,Win32,61.34969325,657b66ea316d21385b68909f,,,,,,,,,,,682.7128,683.7041,683.7041,684.2041,684.2041,684.454,684.454,41,41,687.104,space,2.6168,,687.104,690.7039,space,3.5737,,0,8,8,7,1,45,bars/single007.png,bars/mask009.png,,,,,,,,,,,,,,,,,,,,,,,,,,,,,,,,,,,,,,,,,,,,,,,,,,,,,,,,,,,,,,,,
,,6159f4cfb6b9db3c322e8b66,65af554cb73447736efa8ab8,2024-01-23_07h59.01.722,bars,2023.2.3,Win32,61.34969325,657b66ea316d21385b68909f,,,,,,,,,,,690.7116,691.7037,691.7037,692.2036,692.2036,692.4537,692.4537,139,139,694.3868,space,1.9017,,694.3868,699.2032,space,4.7888,,0,9,9,8,1,160,bars/single008.png,bars/mask004.png,,,,,,,,,,,,,,,,,,,,,,,,,,,,,,,,,,,,,,,,,,,,,,,,,,,,,,,,,,,,,,,,
,,6159f4cfb6b9db3c322e8b66,65af554cb73447736efa8ab8,2024-01-23_07h59.01.722,bars,2023.2.3,Win32,61.34969325,657b66ea316d21385b68909f,,,,,,,,,,,,,,,,,,,,,,,,,,,,,,,,,,,,,699.2105,717.5859,space,18.3568,,,,,,,,,,,,,,,,,,,,,,,,,,,,,,,,,,,,,,,,,,,,,,,,,,,,,,,,,,,,
,,6159f4cfb6b9db3c322e8b66,65af554cb73447736efa8ab8,2024-01-23_07h59.01.722,bars,2023.2.3,Win32,61.34969325,657b66ea316d21385b68909f,,,,,,,,,,,,,,,,,,,,,,,,,,,,,,,,,,,,,,,,,,717.5962,722.9708,left,5.3576,,722.9711,9,1,723.9686,0,0,0,0,1,9,1,9,2,,,,,,,,,,,,,,,,,,,,,,,,,,,,,,,,,,,,,,,,,
,,6159f4cfb6b9db3c322e8b66,65af554cb73447736efa8ab8,2024-01-23_07h59.01.722,bars,2023.2.3,Win32,61.34969325,657b66ea316d21385b68909f,,,,,,,,,,,,,,,,,,,,,,,,,,,,,,,,,,,,,,,,,,723.9691,725.9353,left,1.957,,725.9353,10,1,726.9359,0,1,1,1,1,10,0,10,1,,,,,,,,,,,,,,,,,,,,,,,,,,,,,,,,,,,,,,,,,
,,6159f4cfb6b9db3c322e8b66,65af554cb73447736efa8ab8,2024-01-23_07h59.01.722,bars,2023.2.3,Win32,61.34969325,657b66ea316d21385b68909f,,,,,,,,,,,,,,,,,,,,,,,,,,,,,,,,,,,,,,,,,,726.9365,727.9361,left,0.9842,,727.9362,10,1,728.9354,0,2,2,2,1,10,2,10,2,,,,,,,,,,,,,,,,,,,,,,,,,,,,,,,,,,,,,,,,,
,,6159f4cfb6b9db3c322e8b66,65af554cb73447736efa8ab8,2024-01-23_07h59.01.722,bars,2023.2.3,Win32,61.34969325,657b66ea316d21385b68909f,,,,,,,,,,,,,,,,,,,,,,,,,,,,,,,,,,,,,,,,,,728.9359,729.8186,left,0.8673,,729.8187,7,1,730.819,0,3,3,3,1,8,4,7,3,,,,,,,,,,,,,,,,,,,,,,,,,,,,,,,,,,,,,,,,,
,,6159f4cfb6b9db3c322e8b66,65af554cb73447736efa8ab8,2024-01-23_07h59.01.722,bars,2023.2.3,Win32,61.34969325,657b66ea316d21385b68909f,,,,,,,,,,,,,,,,,,,,,,,,,,,,,,,,,,,,,,,,,,730.8197,731.618,left,0.7822,,731.6181,5,1,732.619,0,4,4,4,1,6,2,5,1,,,,,,,,,,,,,,,,,,,,,,,,,,,,,,,,,,,,,,,,,
,,6159f4cfb6b9db3c322e8b66,65af554cb73447736efa8ab8,2024-01-23_07h59.01.722,bars,2023.2.3,Win32,61.34969325,657b66ea316d21385b68909f,,,,,,,,,,,,,,,,,,,,,,,,,,,,,,,,,,,,,,,,,,732.6198,733.6524,left,1.0213,,733.6526,4,1,734.651,0,5,5,5,1,4,4,4,4,,,,,,,,,,,,,,,,,,,,,,,,,,,,,,,,,,,,,,,,,
,,6159f4cfb6b9db3c322e8b66,65af554cb73447736efa8ab8,2024-01-23_07h59.01.722,bars,2023.2.3,Win32,61.34969325,657b66ea316d21385b68909f,,,,,,,,,,,,,,,,,,,,,,,,,,,,,,,,,,,,,,,,,,734.6511,735.1023,right,0.4363,,735.1023,2,2,736.101,0,6,6,6,1,2,2,1,2,,,,,,,,,,,,,,,,,,,,,,,,,,,,,,,,,,,,,,,,,
,,6159f4cfb6b9db3c322e8b66,65af554cb73447736efa8ab8,2024-01-23_07h59.01.722,bars,2023.2.3,Win32,61.34969325,657b66ea316d21385b68909f,,,,,,,,,,,,,,,,,,,,,,,,,,,,,,,,,,,,,,,,,,736.1013,736.6512,right,0.5339,,736.6512,1,2,737.652,0,7,7,7,1,0,0,0,1,,,,,,,,,,,,,,,,,,,,,,,,,,,,,,,,,,,,,,,,,
,,6159f4cfb6b9db3c322e8b66,65af554cb73447736efa8ab8,2024-01-23_07h59.01.722,bars,2023.2.3,Win32,61.34969325,657b66ea316d21385b68909f,,,,,,,,,,,,,,,,,,,,,,,,,,,,,,,,,,,,,,,,,,737.6526,738.2018,right,0.534,,738.202,0,2,739.2014,0,8,8,8,1,0,2,1,0,,,,,,,,,,,,,,,,,,,,,,,,,,,,,,,,,,,,,,,,,
,,6159f4cfb6b9db3c322e8b66,65af554cb73447736efa8ab8,2024-01-23_07h59.01.722,bars,2023.2.3,Win32,61.34969325,657b66ea316d21385b68909f,,,,,,,,,,,,,,,,,,,,,,,,,,,,,,,,,,,,,,,,,,739.2018,739.5188,right,0.3018,,739.5189,3,2,740.5184,0,9,9,9,1,2,4,2,3,,,,,,,,,,,,,,,,,,,,,,,,,,,,,,,,,,,,,,,,,
,,6159f4cfb6b9db3c322e8b66,65af554cb73447736efa8ab8,2024-01-23_07h59.01.722,bars,2023.2.3,Win32,61.34969325,657b66ea316d21385b68909f,,,,,,,,,,,,,,,,,,,,,,,,,,,,,,,,,,,,,,,,,,740.5192,740.9852,right,0.4541,,740.9853,3,2,741.9848,0,10,10,10,1,0,2,0,3,,,,,,,,,,,,,,,,,,,,,,,,,,,,,,,,,,,,,,,,,
,,6159f4cfb6b9db3c322e8b66,65af554cb73447736efa8ab8,2024-01-23_07h59.01.722,bars,2023.2.3,Win32,61.34969325,657b66ea316d21385b68909f,,,,,,,,,,,,,,,,,,,,,,,,,,,,,,,,,,,,,,,,,,741.9857,742.8678,right,0.8701,,742.8678,3,2,743.868,0,11,11,11,1,0,4,0,3,,,,,,,,,,,,,,,,,,,,,,,,,,,,,,,,,,,,,,,,,
,,6159f4cfb6b9db3c322e8b66,65af554cb73447736efa8ab8,2024-01-23_07h59.01.722,bars,2023.2.3,Win32,61.34969325,657b66ea316d21385b68909f,,,,,,,,,,,,,,,,,,,,,,,,,,,,,,,,,,,,,,,,,,743.8687,744.3684,left,0.4905,,744.3685,1,1,745.3681,0,12,12,12,1,2,6,1,6,,,,,,,,,,,,,,,,,,,,,,,,,,,,,,,,,,,,,,,,,
,,6159f4cfb6b9db3c322e8b66,65af554cb73447736efa8ab8,2024-01-23_07h59.01.722,bars,2023.2.3,Win32,61.34969325,657b66ea316d21385b68909f,,,,,,,,,,,,,,,,,,,,,,,,,,,,,,,,,,,,,,,,,,745.3688,745.8348,left,0.4508,,745.835,1,1,746.8347,0,13,13,13,1,0,4,1,3,,,,,,,,,,,,,,,,,,,,,,,,,,,,,,,,,,,,,,,,,
,,6159f4cfb6b9db3c322e8b66,65af554cb73447736efa8ab8,2024-01-23_07h59.01.722,bars,2023.2.3,Win32,61.34969325,657b66ea316d21385b68909f,,,,,,,,,,,,,,,,,,,,,,,,,,,,,,,,,,,,,,,,,,746.8353,747.2004,left,0.3508,,747.2004,2,1,748.2013,0,14,14,14,1,2,6,2,7,,,,,,,,,,,,,,,,,,,,,,,,,,,,,,,,,,,,,,,,,
,,6159f4cfb6b9db3c322e8b66,65af554cb73447736efa8ab8,2024-01-23_07h59.01.722,bars,2023.2.3,Win32,61.34969325,657b66ea316d21385b68909f,,,,,,,,,,,,,,,,,,,,,,,,,,,,,,,,,,,,,,,,,,748.2019,749.1672,right,0.9482,,749.1672,9,2,750.1679,0,15,15,15,1,4,8,3,9,,,,,,,,,,,,,,,,,,,,,,,,,,,,,,,,,,,,,,,,,
,,6159f4cfb6b9db3c322e8b66,65af554cb73447736efa8ab8,2024-01-23_07h59.01.722,bars,2023.2.3,Win32,61.34969325,657b66ea316d21385b68909f,,,,,,,,,,,,,,,,,,,,,,,,,,,,,,,,,,,,,,,,,,750.1687,750.8682,right,0.6843,,750.8682,7,2,751.8677,0,16,16,16,1,6,6,7,7,,,,,,,,,,,,,,,,,,,,,,,,,,,,,,,,,,,,,,,,,
,,6159f4cfb6b9db3c322e8b66,65af554cb73447736efa8ab8,2024-01-23_07h59.01.722,bars,2023.2.3,Win32,61.34969325,657b66ea316d21385b68909f,,,,,,,,,,,,,,,,,,,,,,,,,,,,,,,,,,,,,,,,,,751.8683,752.667,left,0.7859,,752.6671,9,1,753.6673,0,17,17,17,1,8,4,9,5,,,,,,,,,,,,,,,,,,,,,,,,,,,,,,,,,,,,,,,,,
,,6159f4cfb6b9db3c322e8b66,65af554cb73447736efa8ab8,2024-01-23_07h59.01.722,bars,2023.2.3,Win32,61.34969325,657b66ea316d21385b68909f,,,,,,,,,,,,,,,,,,,,,,,,,,,,,,,,,,,,,,,,,,753.668,754.5844,left,0.9008,,754.5845,5,1,755.5836,0,18,18,18,1,6,2,5,1,,,,,,,,,,,,,,,,,,,,,,,,,,,,,,,,,,,,,,,,,
,,6159f4cfb6b9db3c322e8b66,65af554cb73447736efa8ab8,2024-01-23_07h59.01.722,bars,2023.2.3,Win32,61.34969325,657b66ea316d21385b68909f,,,,,,,,,,,,,,,,,,,,,,,,,,,,,,,,,,,,,,,,,,755.5839,756.2676,right,0.6778,,756.2676,0,2,757.2675,0,19,19,19,1,8,0,7,0,,,,,,,,,,,,,,,,,,,,,,,,,,,,,,,,,,,,,,,,,
,,6159f4cfb6b9db3c322e8b66,65af554cb73447736efa8ab8,2024-01-23_07h59.01.722,bars,2023.2.3,Win32,61.34969325,657b66ea316d21385b68909f,,,,,,,,,,,,,,,,,,,,,,,,,,,,,,,,,,,,,,,,,,,,,,,,,,,,,,,,,,,,757.2688,772.6157,space,15.3297,,,,,,,,,,,,,,,,,,,,,,,,,,,,,,,,,,,,,
,,6159f4cfb6b9db3c322e8b66,65af554cb73447736efa8ab8,2024-01-23_07h59.01.722,bars,2023.2.3,Win32,61.34969325,657b66ea316d21385b68909f,,,,,,,,,,,774.0936,775.0828,,,775.5832,775.8334,,29,29,,,,,,,,,,,,,,,,bars/029.png,bars/mask002.png,,,,,,,,,,,,1,2,,,,,,,2,3,5,3,,,,,,772.6251,774.0843,space,1.4522,,775.0832,775.5831,775.834,780.8508,space,4.9969,,780.8513,61,16,781.8493,781.8498,790.0503,space,8.1729,,0,0,0,0,1,90,45,,,,,,,,
,,6159f4cfb6b9db3c322e8b66,65af554cb73447736efa8ab8,2024-01-23_07h59.01.722,bars,2023.2.3,Win32,61.34969325,657b66ea316d21385b68909f,,,,,,,,,,,790.0744,791.0647,,,791.5648,791.8152,,137,137,,,,,,,,,,,,,,,,bars/023.png,bars/mask009.png,,,,,,,,,,,,0,2,,,,,,,4,1,3,1,,,,,,,,,,,791.0647,791.5648,791.8153,794.3985,space,2.5523,,794.3987,63,22,795.3978,795.3978,799.1648,space,3.734,,0,1,1,1,1,20,115,,,,,,,,
,,6159f4cfb6b9db3c322e8b66,65af554cb73447736efa8ab8,2024-01-23_07h59.01.722,bars,2023.2.3,Win32,61.34969325,657b66ea316d21385b68909f,,,,,,,,,,,799.1858,800.1812,,,800.6814,800.9313,,46,46,,,,,,,,,,,,,,,,bars/031.png,bars/mask008.png,,,,,,,,,,,,0,2,,,,,,,6,0,5,0,,,,,,,,,,,800.1813,800.6813,800.9313,802.6644,space,1.7219,,802.6644,74,11,803.6645,803.6645,806.2977,space,2.6018,,0,2,2,2,1,120,35,,,,,,,,
,,6159f4cfb6b9db3c322e8b66,65af554cb73447736efa8ab8,2024-01-23_07h59.01.722,bars,2023.2.3,Win32,61.34969325,657b66ea316d21385b68909f,,,,,,,,,,,806.2985,807.2976,,,807.7977,808.0472,,75,75,,,,,,,,,,,,,,,,bars/028.png,bars/mask008.png,,,,,,,,,,,,0,1,,,,,,,4,2,4,2,,,,,,,,,,,807.2977,807.7976,808.0473,810.0803,space,2.0188,,810.0804,30,45,811.0809,811.081,826.13,space,15.0085,,0,3,3,3,1,45,120,,,,,,,,
,,6159f4cfb6b9db3c322e8b66,65af554cb73447736efa8ab8,2024-01-23_07h59.01.722,bars,2023.2.3,Win32,61.34969325,657b66ea316d21385b68909f,,,,,,,,,,,826.1512,827.1464,,,827.6462,827.8963,,112,112,,,,,,,,,,,,,,,,bars/009.png,bars/mask005.png,,,,,,,,,,,,3,2,,,,,,,6,4,6,4,,,,,,,,,,,827.1465,827.6462,827.8963,831.6128,space,3.6854,,831.6129,83,7,832.6124,832.6124,833.7297,space,1.0834,,0,4,4,4,1,15,105,,,,,,,,
,,6159f4cfb6b9db3c322e8b66,65af554cb73447736efa8ab8,2024-01-23_07h59.01.722,bars,2023.2.3,Win32,61.34969325,657b66ea316d21385b68909f,,,,,,,,,,,833.7304,834.7287,,,835.2293,835.4787,,2,2,,,,,,,,,,,,,,,,bars/014.png,bars/mask001.png,,,,,,,,,,,,2,2,,,,,,,4,2,3,2,,,,,,,,,,,834.7287,835.2292,835.4787,838.212,space,2.7194,,838.2121,78,2,839.2125,839.2125,841.2958,space,2.0428,,0,5,5,5,1,80,0,,,,,,,,
,,6159f4cfb6b9db3c322e8b66,65af554cb73447736efa8ab8,2024-01-23_07h59.01.722,bars,2023.2.3,Win32,61.34969325,657b66ea316d21385b68909f,,,,,,,,,,,841.2964,842.2955,,,842.7953,843.0455,,18,198,,,,,,,,,,,,,,,,bars/007.png,bars/mask004.png,,,,,,,,,,,,0,1,,,,,,,2,4,2,5,,,,,,,,,,,842.2955,842.7953,843.0456,844.979,space,1.9271,,844.9792,23,37,845.9782,845.9782,848.2285,space,2.2253,,0,6,6,6,1,175,55,,,,,,,,
,,6159f4cfb6b9db3c322e8b66,65af554cb73447736efa8ab8,2024-01-23_07h59.01.722,bars,2023.2.3,Win32,61.34969325,657b66ea316d21385b68909f,,,,,,,,,,,848.2494,849.2449,,,849.7452,849.9946,,66,246,,,,,,,,,,,,,,,,bars/034.png,bars/mask002.png,,,,,,,,,,,,2,2,,,,,,,4,2,5,2,,,,,,,,,,,849.245,849.7452,849.9946,854.2943,space,4.2916,,854.2945,59,1,855.2948,855.2949,882.8765,space,27.5358,,0,7,7,7,1,125,65,,,,,,,,
,,6159f4cfb6b9db3c322e8b66,65af554cb73447736efa8ab8,2024-01-23_07h59.01.722,bars,2023.2.3,Win32,61.34969325,657b66ea316d21385b68909f,,,,,,,,,,,882.8982,883.8924,,,884.3929,884.6429,,134,134,,,,,,,,,,,,,,,,bars/004.png,bars/mask004.png,,,,,,,,,,,,4,2,,,,,,,2,4,2,6,,,,,,,,,,,883.8924,884.3928,884.6429,886.5597,space,1.9038,,886.5598,71,9,887.5595,887.5596,888.8092,space,1.2144,,0,8,8,8,1,25,125,,,,,,,,
,,6159f4cfb6b9db3c322e8b66,65af554cb73447736efa8ab8,2024-01-23_07h59.01.722,bars,2023.2.3,Win32,61.34969325,657b66ea316d21385b68909f,,,,,,,,,,,888.8097,889.8148,,,890.309,890.5594,,30,30,,,,,,,,,,,,,,,,bars/040.png,bars/mask005.png,,,,,,,,,,,,0,2,,,,,,,0,2,0,2,,,,,,,,,,,889.8149,890.309,890.5594,892.8091,space,2.2415,,892.8092,70,25,893.8092,893.8092,894.8593,space,1.009,,0,9,9,9,1,140,5,,,,,,,,
,,6159f4cfb6b9db3c322e8b66,65af554cb73447736efa8ab8,2024-01-23_07h59.01.722,bars,2023.2.3,Win32,61.34969325,657b66ea316d21385b68909f,,,,,,,,,,,894.86,895.859,,,896.359,896.6086,,114,114,,,,,,,,,,,,,,,,bars/001.png,bars/mask004.png,,,,,,,,,,,,0,1,,,,,,,0,4,0,5,,,,,,,,,,,895.859,896.359,896.6086,899.6588,space,3.0369,,899.659,16,29,900.6579,900.6579,901.7085,space,1.0184,,0,10,10,10,1,130,85,,,,,,,,
,,6159f4cfb6b9db3c322e8b66,65af554cb73447736efa8ab8,2024-01-23_07h59.01.722,bars,2023.2.3,Win32,61.34969325,657b66ea316d21385b68909f,,,,,,,,,,,901.7093,902.7084,,,903.2087,903.4586,,114,114,,,,,,,,,,,,,,,,bars/002.png,bars/mask008.png,,,,,,,,,,,,0,1,,,,,,,2,2,1,0,,,,,,,,,,,902.7085,903.2087,903.4586,905.3919,space,1.9172,,905.3919,16,29,906.3921,906.3921,907.6076,space,1.1854,,0,11,11,11,1,130,85,,,,,,,,
,,6159f4cfb6b9db3c322e8b66,65af554cb73447736efa8ab8,2024-01-23_07h59.01.722,bars,2023.2.3,Win32,61.34969325,657b66ea316d21385b68909f,,,,,,,,,,,907.608,908.6079,,,909.1075,909.3574,,138,138,,,,,,,,,,,,,,,,bars/037.png,bars/mask005.png,,,,,,,,,,,,3,1,,,,,,,4,4,5,5,,,,,,,,,,,908.608,909.1075,909.3574,911.7412,space,2.3535,,911.7413,12,33,912.7409,912.741,913.6744,space,0.9072,,0,12,12,12,1,150,105,,,,,,,,
,,6159f4cfb6b9db3c322e8b66,65af554cb73447736efa8ab8,2024-01-23_07h59.01.722,bars,2023.2.3,Win32,61.34969325,657b66ea316d21385b68909f,,,,,,,,,,,913.6751,914.6744,,,915.1746,915.4239,,139,139,,,,,,,,,,,,,,,,bars/039.png,bars/mask004.png,,,,,,,,,,,,0,2,,,,,,,2,2,0,3,,,,,,,,,,,914.6745,915.1745,915.4239,918.5408,space,3.094,,918.5409,36,34,919.5404,919.5405,920.6577,space,1.0803,,0,13,13,13,1,175,105,,,,,,,,
,,6159f4cfb6b9db3c322e8b66,65af554cb73447736efa8ab8,2024-01-23_07h59.01.722,bars,2023.2.3,Win32,61.34969325,657b66ea316d21385b68909f,,,,,,,,,,,920.6582,921.6565,,,922.1566,922.4065,,123,123,,,,,,,,,,,,,,,,bars/039.png,bars/mask006.png,,,,,,,,,,,,2,2,,,,,,,4,4,5,4,,,,,,,,,,,921.6565,922.1565,922.4065,926.0069,space,3.5938,,926.007,52,18,927.0069,927.007,928.1071,space,1.0685,,0,14,14,14,1,175,105,,,,,,,,
,,6159f4cfb6b9db3c322e8b66,65af554cb73447736efa8ab8,2024-01-23_07h59.01.722,bars,2023.2.3,Win32,61.34969325,657b66ea316d21385b68909f,,,,,,,,,,,928.1077,929.107,,,929.6071,929.8571,,20,20,,,,,,,,,,,,,,,,bars/022.png,bars/mask002.png,,,,,,,,,,,,7,2,,,,,,,2,6,1,7,,,,,,,,,,,929.107,929.607,929.8571,934.4401,space,4.5577,,934.4402,75,0,935.4399,935.4399,937.69,space,2.2035,,0,15,15,15,1,95,20,,,,,,,,
,,6159f4cfb6b9db3c322e8b66,65af554cb73447736efa8ab8,2024-01-23_07h59.01.722,bars,2023.2.3,Win32,61.34969325,657b66ea316d21385b68909f,,,,,,,,,,,937.6907,938.6891,,,939.19,939.4393,,140,-40,,,,,,,,,,,,,,,,bars/000.png,bars/mask006.png,,,,,,,,,,,,4,2,,,,,,,4,4,2,5,,,,,,,,,,,938.6891,939.19,939.4393,943.539,space,4.0839,,943.539,80,5,944.5396,944.5396,972.9038,space,28.3245,,0,16,16,16,1,40,145,,,,,,,,
,,6159f4cfb6b9db3c322e8b66,65af554cb73447736efa8ab8,2024-01-23_07h59.01.722,bars,2023.2.3,Win32,61.34969325,657b66ea316d21385b68909f,,,,,,,,,,,972.9173,973.9043,,,974.4044,974.6543,,129,129,,,,,,,,,,,,,,,,bars/032.png,bars/mask005.png,,,,,,,,,,,,4,1,,,,,,,6,2,5,2,,,,,,,,,,,973.9043,974.4044,974.6544,978.9716,space,4.3007,,978.9717,4,71,979.9706,979.9707,981.2376,space,1.2243,,0,17,17,17,1,125,20,,,,,,,,
,,6159f4cfb6b9db3c322e8b66,65af554cb73447736efa8ab8,2024-01-23_07h59.01.722,bars,2023.2.3,Win32,61.34969325,657b66ea316d21385b68909f,,,,,,,,,,,981.2382,982.237,,,982.7373,982.9871,,10,190,,,,,,,,,,,,,,,,bars/012.png,bars/mask009.png,,,,,,,,,,,,3,2,,,,,,,8,4,7,3,,,,,,,,,,,982.2371,982.7372,982.9871,986.0706,space,3.0675,,986.0707,80,5,987.0704,987.0704,988.0368,space,0.9246,,0,18,18,18,1,90,15,,,,,,,,
,,6159f4cfb6b9db3c322e8b66,65af554cb73447736efa8ab8,2024-01-23_07h59.01.722,bars,2023.2.3,Win32,61.34969325,657b66ea316d21385b68909f,,,,,,,,,,,988.0376,989.0368,,,989.5368,989.7865,,30,30,,,,,,,,,,,,,,,,bars/027.png,bars/mask003.png,,,,,,,,,,,,1,2,,,,,,,6,2,5,3,,,,,,,,,,,989.0368,989.5367,989.7866,990.9032,space,1.1046,,990.9033,80,20,991.9032,991.9032,993.1696,space,1.2443,,0,19,19,19,1,110,50,,,,,,,,
,,6159f4cfb6b9db3c322e8b66,65af554cb73447736efa8ab8,2024-01-23_07h59.01.722,bars,2023.2.3,Win32,61.34969325,657b66ea316d21385b68909f,,,,,,,,,,,993.1702,994.1696,,,994.6699,994.9196,,99,99,,,,,,,,,,,,,,,,bars/039.png,bars/mask004.png,,,,,,,,,,,,2,2,,,,,,,8,4,8,2,,,,,,,,,,,994.1697,994.6698,994.9197,1001.3694,space,6.4351,,1001.3696,76,6,1002.369,1002.369,1007.7194,space,5.3187,,0,20,20,20,1,175,105,,,,,,,,
,,6159f4cfb6b9db3c322e8b66,65af554cb73447736efa8ab8,2024-01-23_07h59.01.722,bars,2023.2.3,Win32,61.34969325,657b66ea316d21385b68909f,,,,,,,,,,,1007.7418,1008.7357,,,1009.2356,1009.4849,,16,16,,,,,,,,,,,,,,,,bars/008.png,bars/mask005.png,,,,,,,,,,,,3,2,,,,,,,6,6,5,6,,,,,,,,,,,1008.7357,1009.2355,1009.4849,1013.3354,space,3.8238,,1013.3355,86,16,1014.3353,1014.3353,1015.7379,space,1.3742,,0,21,21,21,1,110,0,,,,,,,,
,,6159f4cfb6b9db3c322e8b66,65af554cb73447736efa8ab8,2024-01-23_07h59.01.722,bars,2023.2.3,Win32,61.34969325,657b66ea316d21385b68909f,,,,,,,,,,,1015.7383,1016.7352,,,1017.2352,1017.4852,,12,12,,,,,,,,,,,,,,,,bars/000.png,bars/mask001.png,,,,,,,,,,,,1,1,,,,,,,8,4,9,4,,,,,,,,,,,1016.7352,1017.2351,1017.4853,1021.535,space,4.0341,,1021.535,28,47,1022.5346,1022.5347,1023.4173,space,0.8441,,0,22,22,22,1,40,145,,,,,,,,
,,6159f4cfb6b9db3c322e8b66,65af554cb73447736efa8ab8,2024-01-23_07h59.01.722,bars,2023.2.3,Win32,61.34969325,657b66ea316d21385b68909f,,,,,,,,,,,1023.4175,1024.4178,,,1024.9176,1025.168,,91,91,,,,,,,,,,,,,,,,bars/028.png,bars/mask002.png,,,,,,,,,,,,0,2,,,,,,,10,2,10,2,,,,,,,,,,,1024.4179,1024.9175,1025.1681,1028.4342,space,3.2524,,1028.4343,46,29,1029.4344,1029.4344,1030.4335,space,0.9679,,0,23,23,23,1,45,120,,,,,,,,
,,6159f4cfb6b9db3c322e8b66,65af554cb73447736efa8ab8,2024-01-23_07h59.01.722,bars,2023.2.3,Win32,61.34969325,657b66ea316d21385b68909f,,,,,,,,,,,1030.4336,1031.4341,,,1031.9342,1032.1721,,141,141,,,,,,,,,,,,,,,,bars/020.png,bars/mask009.png,,,,,,,,,,,,1,1,,,,,,,10,4,10,6,,,,,,,,,,,1031.4342,1031.9342,1032.1721,1035.5508,space,3.3523,,1035.5509,26,29,1036.5507,1036.5507,1038.384,space,1.7962,,0,24,24,24,1,115,170,,,,,,,,
,,6159f4cfb6b9db3c322e8b66,65af554cb73447736efa8ab8,2024-01-23_07h59.01.722,bars,2023.2.3,Win32,61.34969325,657b66ea316d21385b68909f,,,,,,,,,,,1038.3847,1039.3838,,,1039.8835,1040.1336,,29,29,,,,,,,,,,,,,,,,bars/007.png,bars/mask009.png,,,,,,,,,,,,1,2,,,,,,,10,6,9,7,,,,,,,,,,,1039.3839,1039.8834,1040.1336,1043.0666,space,2.917,,1043.0667,34,26,1044.0668,1044.0669,1047,space,2.8993,,0,25,25,25,1,175,55,,,,,,,,
,,6159f4cfb6b9db3c322e8b66,65af554cb73447736efa8ab8,2024-01-23_07h59.01.722,bars,2023.2.3,Win32,61.34969325,657b66ea316d21385b68909f,,,,,,,,,,,1047.0007,1047.9998,,,1048.5,1048.7499,,60,60,,,,,,,,,,,,,,,,bars/035.png,bars/mask005.png,,,,,,,,,,,,8,2,,,,,,,10,8,10,8,,,,,,,,,,,1047.9998,1048.4999,1048.75,1050.6499,space,1.8832,,1050.65,65,0,1051.6494,1051.6495,1074.9981,space,23.3212,,0,26,26,26,1,175,60,,,,,,,,
,,6159f4cfb6b9db3c322e8b66,65af554cb73447736efa8ab8,2024-01-23_07h59.01.722,bars,2023.2.3,Win32,61.34969325,657b66ea316d21385b68909f,,,,,,,,,,,1075.0189,1075.9985,,,1076.4983,1076.748,,133,133,,,,,,,,,,,,,,,,bars/037.png,bars/mask008.png,,,,,,,,,,,,4,1,,,,,,,10,10,10,10,,,,,,,,,,,1075.9985,1076.4982,1076.7481,1079.9813,space,3.2252,,1079.9814,17,28,1080.9811,1080.9812,1084.9646,space,3.9393,,0,27,27,27,1,150,105,,,,,,,,
,,6159f4cfb6b9db3c322e8b66,65af554cb73447736efa8ab8,2024-01-23_07h59.01.722,bars,2023.2.3,Win32,61.34969325,657b66ea316d21385b68909f,,,,,,,,,,,1084.984,1085.9811,,,1086.4811,1086.7309,,32,32,,,,,,,,,,,,,,,,bars/027.png,bars/mask009.png,,,,,,,,,,,,3,2,,,,,,,10,8,10,8,,,,,,,,,,,1085.9812,1086.481,1086.7309,1088.9808,space,2.2379,,1088.9809,78,18,1089.9809,1089.981,1091.6966,space,1.6861,,0,28,28,28,1,110,50,,,,,,,,
,,6159f4cfb6b9db3c322e8b66,65af554cb73447736efa8ab8,2024-01-23_07h59.01.722,bars,2023.2.3,Win32,61.34969325,657b66ea316d21385b68909f,,,,,,,,,,,1091.6967,1092.6855,,,1093.1808,1093.4298,,55,55,,,,,,,,,,,,,,,,bars/034.png,bars/mask000.png,,,,,,,,,,,,7,2,,,,,,,8,10,8,10,,,,,,,,,,,1092.6855,1093.1807,1093.4298,1096.2804,space,2.8433,,1096.2804,70,10,1097.2799,1097.2799,1099.0799,space,1.7775,,0,29,29,29,1,125,65,,,,,,,,
,,6159f4cfb6b9db3c322e8b66,65af554cb73447736efa8ab8,2024-01-23_07h59.01.722,bars,2023.2.3,Win32,61.34969325,657b66ea316d21385b68909f,,,,,,,,,,,1099.0806,1100.0803,,,1100.5804,1100.83,,17,17,,,,,,,,,,,,,,,,bars/025.png,bars/mask007.png,,,,,,,,,,,,2,2,,,,,,,6,10,7,10,,,,,,,,,,,1100.0803,1100.5803,1100.8301,1103.3304,space,2.4942,,1103.3305,88,23,1104.3292,1104.3292,1108.0628,space,3.7028,,0,30,30,30,1,105,40,,,,,,,,
,,6159f4cfb6b9db3c322e8b66,65af554cb73447736efa8ab8,2024-01-23_07h59.01.722,bars,2023.2.3,Win32,61.34969325,657b66ea316d21385b68909f,,,,,,,,,,,1108.086,1109.063,,,1109.5626,1109.8127,,64,64,,,,,,,,,,,,,,,,bars/011.png,bars/mask009.png,,,,,,,,,,,,3,2,,,,,,,4,10,3,10,,,,,,,,,,,1109.0631,1109.5626,1109.8127,1113.2125,space,3.3935,,1113.2125,84,21,1114.2124,1114.2125,1115.2455,space,0.9926,,0,31,31,31,1,160,85,,,,,,,,
,,6159f4cfb6b9db3c322e8b66,65af554cb73447736efa8ab8,2024-01-23_07h59.01.722,bars,2023.2.3,Win32,61.34969325,657b66ea316d21385b68909f,,,,,,,,,,,1115.2458,1116.2459,,,1116.7453,1116.996,,134,134,,,,,,,,,,,,,,,,bars/004.png,bars/mask006.png,,,,,,,,,,,,7,2,,,,,,,6,10,7,10,,,,,,,,,,,1116.246,1116.7453,1116.9961,1118.1958,space,1.1849,,1118.1958,71,9,1119.1957,1119.1957,1120.7615,space,1.5232,,0,32,32,32,1,25,125,,,,,,,,
,,6159f4cfb6b9db3c322e8b66,65af554cb73447736efa8ab8,2024-01-23_07h59.01.722,bars,2023.2.3,Win32,61.34969325,657b66ea316d21385b68909f,,,,,,,,,,,1120.7616,1121.7622,,,1122.2621,1122.5118,,126,126,,,,,,,,,,,,,,,,bars/039.png,bars/mask003.png,,,,,,,,,,,,3,2,,,,,,,4,10,3,9,,,,,,,,,,,1121.7622,1122.2621,1122.5118,1124.462,space,1.9352,,1124.4621,49,21,1125.462,1125.462,1127.3287,space,1.8299,,0,33,33,33,1,175,105,,,,,,,,
,,6159f4cfb6b9db3c322e8b66,65af554cb73447736efa8ab8,2024-01-23_07h59.01.722,bars,2023.2.3,Win32,61.34969325,657b66ea316d21385b68909f,,,,,,,,,,,1127.3293,1128.3285,,,1128.8286,1129.0672,,21,201,,,,,,,,,,,,,,,,bars/036.png,bars/mask000.png,,,,,,,,,,,,8,2,,,,,,,6,8,8,8,,,,,,,,,,,1128.3285,1128.8285,1129.0672,1131.5115,space,2.4296,,1131.5115,56,1,1132.5115,1132.5115,1161.3602,space,28.8111,,0,34,34,34,1,145,20,,,,,,,,
,,6159f4cfb6b9db3c322e8b66,65af554cb73447736efa8ab8,2024-01-23_07h59.01.722,bars,2023.2.3,Win32,61.34969325,657b66ea316d21385b68909f,,,,,,,,,,,1161.3807,1162.3763,,,1162.8758,1163.1265,,110,110,,,,,,,,,,,,,,,,bars/026.png,bars/mask004.png,,,,,,,,,,,,1,2,,,,,,,4,6,4,6,,,,,,,,,,,1162.3764,1162.8758,1163.1266,1165.9427,space,2.7924,,1165.9428,75,25,1166.9424,1166.9424,1196.4739,space,29.508,,0,35,35,35,1,35,85,,,,,,,,
,,6159f4cfb6b9db3c322e8b66,65af554cb73447736efa8ab8,2024-01-23_07h59.01.722,bars,2023.2.3,Win32,61.34969325,657b66ea316d21385b68909f,,,,,,,,,,,1196.4836,1197.4742,,,1197.9738,1198.2242,,150,150,,,,,,,,,,,,,,,,bars/003.png,bars/mask003.png,,,,,,,,,,,,3,2,,,,,,,2,4,1,4,,,,,,,,,,,1197.4742,1197.9738,1198.2242,1201.1575,space,2.9161,,1201.1577,55,10,1202.1575,1202.1576,1202.5404,space,0.3421,,0,36,36,36,1,25,140,,,,,,,,
,,6159f4cfb6b9db3c322e8b66,65af554cb73447736efa8ab8,2024-01-23_07h59.01.722,bars,2023.2.3,Win32,61.34969325,657b66ea316d21385b68909f,,,,,,,,,,,1202.5407,1203.5407,,,1204.0408,1204.2907,,111,111,,,,,,,,,,,,,,,,bars/041.png,bars/mask003.png,,,,,,,,,,,,0,2,,,,,,,0,2,1,0,,,,,,,,,,,1203.5408,1204.0408,1204.2908,1206.2739,space,1.9516,,1206.274,89,26,1207.2739,1207.2739,1207.9731,space,0.6641,,0,37,37,37,1,20,85,,,,,,,,
,,6159f4cfb6b9db3c322e8b66,65af554cb73447736efa8ab8,2024-01-23_07h59.01.722,bars,2023.2.3,Win32,61.34969325,657b66ea316d21385b68909f,,,,,,,,,,,1207.9733,1208.9733,,,1209.4737,1209.7235,,124,124,,,,,,,,,,,,,,,,bars/041.png,bars/mask005.png,,,,,,,,,,,,0,2,,,,,,,2,0,2,1,,,,,,,,,,,1208.9733,1209.4737,1209.7236,1211.5404,space,1.8018,,1211.5404,76,39,1212.5398,1212.5398,1213.5735,space,1.0024,,0,38,38,38,1,20,85,,,,,,,,
,,6159f4cfb6b9db3c322e8b66,65af554cb73447736efa8ab8,2024-01-23_07h59.01.722,bars,2023.2.3,Win32,61.34969325,657b66ea316d21385b68909f,,,,,,,,,,,1213.5741,1214.5732,,,1215.0728,1215.3232,,22,202,,,,,,,,,,,,,,,,bars/032.png,bars/mask007.png,,,,,,,,,,,,2,2,,,,,,,4,2,5,2,,,,,,,,,,,1214.5732,1215.0728,1215.3233,1218.089,space,2.7477,,1218.089,77,2,1219.0893,1219.0893,1294.1349,space,75.0137,,0,39,39,39,1,125,20,,,,,,,,
,,6159f4cfb6b9db3c322e8b66,65af554cb73447736efa8ab8,2024-01-23_07h59.01.722,bars,2023.2.3,Win32,61.34969325,657b66ea316d21385b68909f,,,,,,,,,,,1294.1445,1295.1354,,,1295.6345,1295.8852,,84,84,,,,,,,,,,,,,,,,bars/001.png,bars/mask000.png,,,,,,,,,,,,1,2,,,,,,,6,0,7,1,,,,,,,,,,,1295.1354,1295.6344,1295.8852,1298.8683,space,2.973,,1298.8684,46,1,1299.8676,1299.8676,1302.035,space,2.1353,,0,40,40,40,1,130,85,,,,,,,,
,,6159f4cfb6b9db3c322e8b66,65af554cb73447736efa8ab8,2024-01-23_07h59.01.722,bars,2023.2.3,Win32,61.34969325,657b66ea316d21385b68909f,,,,,,,,,,,1302.0358,1303.0349,,,1303.5349,1303.7848,,17,17,,,,,,,,,,,,,,,,bars/020.png,bars/mask007.png,,,,,,,,,,,,0,2,,,,,,,4,2,4,2,,,,,,,,,,,1303.0349,1303.5349,1303.7849,1306.5386,space,2.7482,,1306.5386,82,27,1307.5345,1307.5347,1308.6506,space,1.0743,,0,41,41,41,1,115,170,,,,,,,,
,,6159f4cfb6b9db3c322e8b66,65af554cb73447736efa8ab8,2024-01-23_07h59.01.722,bars,2023.2.3,Win32,61.34969325,657b66ea316d21385b68909f,,,,,,,,,,,1308.6508,1309.6504,,,1310.1511,1310.4012,,127,127,,,,,,,,,,,,,,,,bars/028.png,bars/mask003.png,,,,,,,,,,,,2,2,,,,,,,2,4,1,3,,,,,,,,,,,1309.6505,1310.1511,1310.4012,1315.6673,space,5.2505,,1315.6674,82,7,1316.6674,1316.6675,1318.0168,space,1.3081,,0,42,42,42,1,45,120,,,,,,,,
,,6159f4cfb6b9db3c322e8b66,65af554cb73447736efa8ab8,2024-01-23_07h59.01.722,bars,2023.2.3,Win32,61.34969325,657b66ea316d21385b68909f,,,,,,,,,,,1318.0171,1319.017,,,1319.5173,1319.7675,,143,-37,,,,,,,,,,,,,,,,bars/049.png,bars/mask000.png,,,,,,,,,,,,0,1,,,,,,,0,2,1,1,,,,,,,,,,,1319.017,1319.5173,1319.7675,1323.183,space,3.4015,,1323.1831,17,28,1324.1837,1324.1838,1325.1172,space,0.8991,,0,43,43,43,1,160,115,,,,,,,,
,,6159f4cfb6b9db3c322e8b66,65af554cb73447736efa8ab8,2024-01-23_07h59.01.722,bars,2023.2.3,Win32,61.34969325,657b66ea316d21385b68909f,,,,,,,,,,,1325.118,1326.1169,,,1326.6164,1326.867,,142,142,,,,,,,,,,,,,,,,bars/015.png,bars/mask000.png,,,,,,,,,,,,2,2,,,,,,,0,4,0,4,,,,,,,,,,,1326.117,1326.6164,1326.8671,1328.7003,space,1.8225,,1328.7004,32,18,1329.6999,1329.7,1330.5835,space,0.8609,,0,44,44,44,1,110,160,,,,,,,,
,,6159f4cfb6b9db3c322e8b66,65af554cb73447736efa8ab8,2024-01-23_07h59.01.722,bars,2023.2.3,Win32,61.34969325,657b66ea316d21385b68909f,,,,,,,,,,,1330.5841,1331.583,,,1332.0834,1332.3332,,28,208,,,,,,,,,,,,,,,,bars/014.png,bars/mask006.png,,,,,,,,,,,,1,2,,,,,,,0,6,0,9,,,,,,,,,,,1331.5831,1332.0833,1332.3333,1336.4159,space,4.0673,,1336.416,52,28,1337.4163,1337.4165,1338.3655,space,0.9087,,0,45,45,45,1,80,0,,,,,,,,
,,6159f4cfb6b9db3c322e8b66,65af554cb73447736efa8ab8,2024-01-23_07h59.01.722,bars,2023.2.3,Win32,61.34969325,657b66ea316d21385b68909f,,,,,,,,,,,1338.3657,1339.3663,,,1339.8658,1340.1154,,160,160,,,,,,,,,,,,,,,,bars/024.png,bars/mask004.png,,,,,,,,,,,,2,2,,,,,,,2,4,2,3,,,,,,,,,,,1339.3663,1339.8657,1340.1154,1343.0826,space,2.9524,,1343.0826,40,10,1344.0823,1344.0823,1345.0323,space,0.9104,,0,46,46,46,1,120,170,,,,,,,,
,,6159f4cfb6b9db3c322e8b66,65af554cb73447736efa8ab8,2024-01-23_07h59.01.722,bars,2023.2.3,Win32,61.34969325,657b66ea316d21385b68909f,,,,,,,,,,,1345.033,1346.0321,,,1346.532,1346.7824,,41,41,,,,,,,,,,,,,,,,bars/047.png,bars/mask002.png,,,,,,,,,,,,0,1,,,,,,,0,2,1,2,,,,,,,,,,,1346.0322,1346.532,1346.7824,1350.5321,space,3.7371,,1350.5321,26,29,1351.5321,1351.5321,1352.2491,space,0.6784,,0,47,47,47,1,15,70,,,,,,,,
,,6159f4cfb6b9db3c322e8b66,65af554cb73447736efa8ab8,2024-01-23_07h59.01.722,bars,2023.2.3,Win32,61.34969325,657b66ea316d21385b68909f,,,,,,,,,,,1352.2497,1353.2487,,,1353.7489,1353.9988,,126,126,,,,,,,,,,,,,,,,bars/000.png,bars/mask006.png,,,,,,,,,,,,2,2,,,,,,,0,4,2,5,,,,,,,,,,,1353.2487,1353.7488,1353.9989,1356.7479,space,2.7409,,1356.748,86,19,1357.7487,1357.7488,1358.4815,space,0.6884,,0,48,48,48,1,40,145,,,,,,,,
,,6159f4cfb6b9db3c322e8b66,65af554cb73447736efa8ab8,2024-01-23_07h59.01.722,bars,2023.2.3,Win32,61.34969325,657b66ea316d21385b68909f,,,,,,,,,,,1358.4822,1359.4814,,,1359.9812,1360.2305,,27,27,,,,,,,,,,,,,,,,bars/025.png,bars/mask008.png,,,,,,,,,,,,2,2,,,,,,,2,2,1,3,,,,,,,,,,,1359.4815,1359.9812,1360.2305,1363.2642,space,3.0263,,1363.2642,78,13,1364.2644,1364.2644,1365.1643,space,0.8677,,0,49,49,49,1,105,40,,,,,,,,
,,6159f4cfb6b9db3c322e8b66,65af554cb73447736efa8ab8,2024-01-23_07h59.01.722,bars,2023.2.3,Win32,61.34969325,657b66ea316d21385b68909f,,,,,,,,,,,,,,,,,,,,,,,,,,,,,,,,,,,,,,,,,,,,,,,,,,,,,,,,,,,,,,,,,,,,,,,,,,,,,,,,,,,,,,,,,,,,,1365.1661,1425.1606,0,0,0,4,1,sequence_tables/blk016.csv
,,6159f4cfb6b9db3c322e8b66,65af554cb73447736efa8ab8,2024-01-23_07h59.01.722,bars,2023.2.3,Win32,61.34969325,657b66ea316d21385b68909f,,,,,,,,,,,1559.0341,1560.0191,,,1560.5199,1560.7692,,162,162,,,,,,,,,,,,,,,,bars/012.png,bars/mask009.png,,,,,,,,,,,,0,2,,,,,,,3,3,2,3,,,,,,1425.167,1559.0033,space,133.8216,,1560.0192,1560.5197,1560.7692,1565.4694,space,4.6871,,1565.4695,72,33,1566.4693,1566.4693,1566.4911,,,,0,0,0,0,1,90,15,,,,,,,,
,,6159f4cfb6b9db3c322e8b66,65af554cb73447736efa8ab8,2024-01-23_07h59.01.722,bars,2023.2.3,Win32,61.34969325,657b66ea316d21385b68909f,,,,,,,,,,,1566.4914,1567.4858,,,1567.9852,1568.2356,,93,93,,,,,,,,,,,,,,,,bars/018.png,bars/mask005.png,,,,,,,,,,,,2,2,,,,,,,1,1,1,2,,,,,,,,,,,1567.4858,1567.9852,1568.2357,1571.6735,space,3.4319,,1571.6736,57,3,1572.6682,1572.6682,1572.6766,,,,0,1,1,1,1,150,90,,,,,,,,
,,6159f4cfb6b9db3c322e8b66,65af554cb73447736efa8ab8,2024-01-23_07h59.01.722,bars,2023.2.3,Win32,61.34969325,657b66ea316d21385b68909f,,,,,,,,,,,1572.6768,1573.669,,,1574.169,1574.4187,,171,-9,,,,,,,,,,,,,,,,bars/048.png,bars/mask004.png,,,,,,,,,,,,0,2,,,,,,,3,0,4,0,,,,,,,,,,,1573.669,1574.1689,1574.4188,1577.1852,space,2.7506,,1577.1852,59,4,1578.1852,1578.1852,1578.2078,,,,0,2,2,2,1,50,175,,,,,,,,
,,6159f4cfb6b9db3c322e8b66,65af554cb73447736efa8ab8,2024-01-23_07h59.01.722,bars,2023.2.3,Win32,61.34969325,657b66ea316d21385b68909f,,,,,,,,,,,1578.208,1579.2018,,,1579.7011,1579.9515,,17,17,,,,,,,,,,,,,,,,bars/014.png,bars/mask009.png,,,,,,,,,,,,2,2,,,,,,,1,2,0,4,,,,,,,,,,,1579.2019,1579.701,1579.9516,1582.835,space,2.8676,,1582.835,63,17,1583.8348,1583.8349,1583.8576,,,,0,3,3,3,1,80,0,,,,,,,,
,,6159f4cfb6b9db3c322e8b66,65af554cb73447736efa8ab8,2024-01-23_07h59.01.722,bars,2023.2.3,Win32,61.34969325,657b66ea316d21385b68909f,,,,,,,,,,,1583.8578,1584.8512,,,1585.3515,1585.6009,,139,139,,,,,,,,,,,,,,,,bars/015.png,bars/mask002.png,,,,,,,,,,,,1,2,,,,,,,3,4,4,4,,,,,,,,,,,1584.8512,1585.3515,1585.6009,1590.4513,space,4.8364,,1590.4514,29,21,1591.4511,1591.4512,1591.4764,,,,0,4,4,4,1,110,160,,,,,,,,
,,6159f4cfb6b9db3c322e8b66,65af554cb73447736efa8ab8,2024-01-23_07h59.01.722,bars,2023.2.3,Win32,61.34969325,657b66ea316d21385b68909f,,,,,,,,,,,1591.4766,1592.4677,,,1592.9674,1593.2169,,26,26,,,,,,,,,,,,,,,,bars/025.png,bars/mask006.png,,,,,,,,,,,,3,2,,,,,,,1,6,2,6,,,,,,,,,,,1592.4678,1592.9673,1593.217,1595.0344,space,1.7855,,1595.0344,79,14,1596.034,1596.0341,1596.0569,,,,0,5,5,5,1,105,40,,,,,,,,
,,6159f4cfb6b9db3c322e8b66,65af554cb73447736efa8ab8,2024-01-23_07h59.01.722,bars,2023.2.3,Win32,61.34969325,657b66ea316d21385b68909f,,,,,,,,,,,1596.0571,1597.0507,,,1597.5508,1597.8001,,129,-51,,,,,,,,,,,,,,,,bars/039.png,bars/mask007.png,,,,,,,,,,,,1,2,,,,,,,0,8,0,6,,,,,,,,,,,1597.0508,1597.5507,1597.8002,1600.5664,space,2.761,,1600.5665,46,24,1601.567,1601.567,1601.5889,,,,0,6,6,6,1,175,105,,,,,,,,
,,6159f4cfb6b9db3c322e8b66,65af554cb73447736efa8ab8,2024-01-23_07h59.01.722,bars,2023.2.3,Win32,61.34969325,657b66ea316d21385b68909f,,,,,,,,,,,1601.5891,1602.5834,,,1603.0837,1603.3336,,107,-73,,,,,,,,,,,,,,,,bars/000.png,bars/mask001.png,,,,,,,,,,,,0,2,,,,,,,0,6,0,6,,,,,,,,,,,1602.5835,1603.0837,1603.3336,1608.2331,space,4.8835,,1608.2332,67,38,1609.2332,1609.2332,1609.2562,,,,0,7,7,7,1,40,145,,,,,,,,
,,6159f4cfb6b9db3c322e8b66,65af554cb73447736efa8ab8,2024-01-23_07h59.01.722,bars,2023.2.3,Win32,61.34969325,657b66ea316d21385b68909f,,,,,,,,,,,1609.2565,1610.2496,,,1610.7492,1610.9997,,29,209,,,,,,,,,,,,,,,,bars/040.png,bars/mask003.png,,,,,,,,,,,,1,2,,,,,,,2,4,1,4,,,,,,,,,,,1610.2497,1610.7492,1610.9998,1614.5997,space,3.5823,,1614.5998,69,24,1615.5997,1615.5997,1615.6209,,,,0,8,8,8,1,140,5,,,,,,,,
,,6159f4cfb6b9db3c322e8b66,65af554cb73447736efa8ab8,2024-01-23_07h59.01.722,bars,2023.2.3,Win32,61.34969325,657b66ea316d21385b68909f,,,,,,,,,,,1615.6212,1616.6155,,,1617.116,1617.3663,,59,239,,,,,,,,,,,,,,,,bars/030.png,bars/mask005.png,,,,,,,,,,,,5,2,,,,,,,4,6,3,6,,,,,,,,,,,1616.6156,1617.116,1617.3664,1620.8822,space,3.5056,,1620.8822,81,6,1621.8867,1621.8867,1621.8945,,,,0,9,9,9,1,140,65,,,,,,,,
,,6159f4cfb6b9db3c322e8b66,65af554cb73447736efa8ab8,2024-01-23_07h59.01.722,bars,2023.2.3,Win32,61.34969325,657b66ea316d21385b68909f,,,,,,,,,,,1621.8947,1622.8985,,,1623.4022,1623.6492,,25,205,,,,,,,,,,,,,,,,bars/022.png,bars/mask000.png,,,,,,,,,,,,8,2,,,,,,,6,8,7,9,,,,,,,,,,,1622.8985,1623.4021,1623.6493,1626.049,space,2.3829,,1626.0491,70,5,1627.0531,1627.0531,1627.054,,,,0,10,10,10,1,95,20,,,,,,,,
,,6159f4cfb6b9db3c322e8b66,65af554cb73447736efa8ab8,2024-01-23_07h59.01.722,bars,2023.2.3,Win32,61.34969325,657b66ea316d21385b68909f,,,,,,,,,,,1627.0544,1628.0491,,,1628.549,1628.7989,,99,99,,,,,,,,,,,,,,,,bars/011.png,bars/mask005.png,,,,,,,,,,,,3,2,,,,,,,4,6,4,5,,,,,,,,,,,1628.0491,1628.5489,1628.7989,1632.6486,space,3.8366,,1632.6487,61,14,1633.648,1633.6481,1633.6608,,,,0,11,11,11,1,160,85,,,,,,,,
,,6159f4cfb6b9db3c322e8b66,65af554cb73447736efa8ab8,2024-01-23_07h59.01.722,bars,2023.2.3,Win32,61.34969325,657b66ea316d21385b68909f,,,,,,,,,,,1633.661,1634.6651,,,1635.165,1635.4149,,38,38,,,,,,,,,,,,,,,,bars/029.png,bars/mask001.png,,,,,,,,,,,,7,2,,,,,,,2,8,2,9,,,,,,,,,,,1634.6652,1635.1649,1635.4149,1637.5979,space,2.1661,,1637.598,52,7,1638.598,1638.598,1638.5995,,,,0,12,12,12,1,90,45,,,,,,,,
,,6159f4cfb6b9db3c322e8b66,65af554cb73447736efa8ab8,2024-01-23_07h59.01.722,bars,2023.2.3,Win32,61.34969325,657b66ea316d21385b68909f,,,,,,,,,,,1638.6003,1639.5979,,,1640.0975,1640.3475,,41,41,,,,,,,,,,,,,,,,bars/007.png,bars/mask000.png,,,,,,,,,,,,5,2,,,,,,,0,10,1,9,,,,,,,,,,,1639.598,1640.0975,1640.3475,1641.9476,space,1.59,,1641.9476,46,14,1642.9475,1642.9475,1642.9486,,,,0,13,13,13,1,175,55,,,,,,,,
,,6159f4cfb6b9db3c322e8b66,65af554cb73447736efa8ab8,2024-01-23_07h59.01.722,bars,2023.2.3,Win32,61.34969325,657b66ea316d21385b68909f,,,,,,,,,,,1642.9489,1643.9471,,,1644.447,1644.6977,,152,152,,,,,,,,,,,,,,,,bars/005.png,bars/mask001.png,,,,,,,,,,,,6,2,,,,,,,2,10,1,10,,,,,,,,,,,1643.9472,1644.447,1644.6978,1646.5977,space,1.8843,,1646.5977,38,12,1647.5976,1647.5976,1647.6121,,,,0,14,14,14,1,10,140,,,,,,,,
,,6159f4cfb6b9db3c322e8b66,65af554cb73447736efa8ab8,2024-01-23_07h59.01.722,bars,2023.2.3,Win32,61.34969325,657b66ea316d21385b68909f,,,,,,,,,,,1647.6122,1648.6138,,,1649.1144,1649.364,,10,10,,,,,,,,,,,,,,,,bars/025.png,bars/mask009.png,,,,,,,,,,,,0,2,,,,,,,0,8,0,8,,,,,,,,,,,1648.6138,1649.1143,1649.364,1651.114,space,1.7438,,1651.114,85,30,1652.1136,1652.1137,1652.1301,,,,0,15,15,15,1,105,40,,,,,,,,
,,6159f4cfb6b9db3c322e8b66,65af554cb73447736efa8ab8,2024-01-23_07h59.01.722,bars,2023.2.3,Win32,61.34969325,657b66ea316d21385b68909f,,,,,,,,,,,1652.1305,1653.1307,,,1653.631,1653.8801,,162,-18,,,,,,,,,,,,,,,,bars/024.png,bars/mask005.png,,,,,,,,,,,,6,2,,,,,,,0,10,1,8,,,,,,,,,,,1653.1308,1653.6308,1653.8801,1656.8474,space,2.9569,,1656.8474,42,8,1657.8469,1657.8469,1657.8693,,,,0,16,16,16,1,120,170,,,,,,,,
,,6159f4cfb6b9db3c322e8b66,65af554cb73447736efa8ab8,2024-01-23_07h59.01.722,bars,2023.2.3,Win32,61.34969325,657b66ea316d21385b68909f,,,,,,,,,,,1657.8696,1658.8637,,,1659.3637,1659.6136,,176,-4,,,,,,,,,,,,,,,,bars/040.png,bars/mask000.png,,,,,,,,,,,,6,2,,,,,,,0,10,0,9,,,,,,,,,,,1658.8637,1659.3637,1659.6137,1662.9804,space,3.3351,,1662.9804,36,9,1663.9801,1663.9802,1664.0058,,,,0,17,17,17,1,140,5,,,,,,,,
,,6159f4cfb6b9db3c322e8b66,65af554cb73447736efa8ab8,2024-01-23_07h59.01.722,bars,2023.2.3,Win32,61.34969325,657b66ea316d21385b68909f,,,,,,,,,,,1664.0061,1664.9967,,,1665.4967,1665.7467,,70,70,,,,,,,,,,,,,,,,bars/018.png,bars/mask003.png,,,,,,,,,,,,3,2,,,,,,,2,10,2,10,,,,,,,,,,,1664.9968,1665.4967,1665.7467,1668.6131,space,2.8523,,1668.6131,80,20,1669.6124,1669.6124,1669.6254,,,,0,18,18,18,1,150,90,,,,,,,,
,,6159f4cfb6b9db3c322e8b66,65af554cb73447736efa8ab8,2024-01-23_07h59.01.722,bars,2023.2.3,Win32,61.34969325,657b66ea316d21385b68909f,,,,,,,,,,,1669.6256,1670.6292,,,1671.129,1671.3795,,42,42,,,,,,,,,,,,,,,,bars/027.png,bars/mask001.png,,,,,,,,,,,,6,2,,,,,,,4,8,5,8,,,,,,,,,,,1670.6292,1671.129,1671.3795,1673.4299,space,2.0364,,1673.4299,68,8,1674.4295,1674.4296,1674.4545,,,,0,19,19,19,1,110,50,,,,,,,,
,,6159f4cfb6b9db3c322e8b66,65af554cb73447736efa8ab8,2024-01-23_07h59.01.722,bars,2023.2.3,Win32,61.34969325,657b66ea316d21385b68909f,,,,,,,,,,,1674.4547,1675.4462,,,1675.9461,1676.1961,,47,47,,,,,,,,,,,,,,,,bars/042.png,bars/mask007.png,,,,,,,,,,,,1,2,,,,,,,6,10,7,10,,,,,,,,,,,1675.4462,1675.9461,1676.1961,1677.9956,space,1.784,,1677.9956,82,28,1678.9958,1678.9958,1678.9972,,,,0,20,20,20,1,145,75,,,,,,,,
,,6159f4cfb6b9db3c322e8b66,65af554cb73447736efa8ab8,2024-01-23_07h59.01.722,bars,2023.2.3,Win32,61.34969325,657b66ea316d21385b68909f,,,,,,,,,,,1678.9975,1679.9958,,,1680.4958,1680.7459,,117,117,,,,,,,,,,,,,,,,bars/041.png,bars/mask000.png,,,,,,,,,,,,0,2,,,,,,,8,8,7,7,,,,,,,,,,,1679.9959,1680.4958,1680.7459,1683.6115,space,2.849,,1683.6115,83,32,1684.6116,1684.6116,1684.6242,,,,0,21,21,21,1,20,85,,,,,,,,
,,6159f4cfb6b9db3c322e8b66,65af554cb73447736efa8ab8,2024-01-23_07h59.01.722,bars,2023.2.3,Win32,61.34969325,657b66ea316d21385b68909f,,,,,,,,,,,1684.6244,1685.6121,,,1686.112,1686.3618,,9,9,,,,,,,,,,,,,,,,bars/012.png,bars/mask003.png,,,,,,,,,,,,8,2,,,,,,,6,10,6,10,,,,,,,,,,,1685.6122,1686.1119,1686.3618,1689.2787,space,2.9011,,1689.2788,81,6,1690.2852,1690.2853,1690.2931,,,,0,22,22,22,1,90,15,,,,,,,,
,,6159f4cfb6b9db3c322e8b66,65af554cb73447736efa8ab8,2024-01-23_07h59.01.722,bars,2023.2.3,Win32,61.34969325,657b66ea316d21385b68909f,,,,,,,,,,,1690.2932,1691.2951,,,1691.7952,1692.0451,,111,111,,,,,,,,,,,,,,,,bars/019.png,bars/mask006.png,,,,,,,,,,,,6,2,,,,,,,4,8,3,7,,,,,,,,,,,1691.2953,1691.7952,1692.0452,1694.3118,space,2.2566,,1694.3119,66,6,1695.3113,1695.3114,1695.3287,,,,0,23,23,23,1,45,105,,,,,,,,
,,6159f4cfb6b9db3c322e8b66,65af554cb73447736efa8ab8,2024-01-23_07h59.01.722,bars,2023.2.3,Win32,61.34969325,657b66ea316d21385b68909f,,,,,,,,,,,1695.329,1696.3281,,,1696.8283,1697.0783,,26,26,,,,,,,,,,,,,,,,bars/035.png,bars/mask001.png,,,,,,,,,,,,0,1,,,,,,,6,10,6,10,,,,,,,,,,,1696.3281,1696.8282,1697.0783,1698.0116,space,0.9194,,1698.0117,31,34,1699.0107,1699.0108,1699.0134,,,,0,24,24,24,1,175,60,,,,,,,,
,,6159f4cfb6b9db3c322e8b66,65af554cb73447736efa8ab8,2024-01-23_07h59.01.722,bars,2023.2.3,Win32,61.34969325,657b66ea316d21385b68909f,,,,,,,,,,,1699.0138,1700.011,,,1700.5112,1700.7611,,126,126,,,,,,,,,,,,,,,,bars/044.png,bars/mask009.png,,,,,,,,,,,,0,2,,,,,,,8,10,8,9,,,,,,,,,,,1700.0111,1700.5111,1700.7612,1702.7273,space,1.9356,,1702.7274,51,29,1703.7277,1703.7278,1703.7502,,,,0,25,25,25,1,75,155,,,,,,,,
,,6159f4cfb6b9db3c322e8b66,65af554cb73447736efa8ab8,2024-01-23_07h59.01.722,bars,2023.2.3,Win32,61.34969325,657b66ea316d21385b68909f,,,,,,,,,,,1703.7504,1704.744,,,1705.2443,1705.4943,,164,-16,,,,,,,,,,,,,,,,bars/024.png,bars/mask003.png,,,,,,,,,,,,6,2,,,,,,,10,8,10,8,,,,,,,,,,,1704.7441,1705.2443,1705.4944,1707.5778,space,2.0722,,1707.5778,44,6,1708.5773,1708.5773,1708.5989,,,,0,26,26,26,1,120,170,,,,,,,,
,,6159f4cfb6b9db3c322e8b66,65af554cb73447736efa8ab8,2024-01-23_07h59.01.722,bars,2023.2.3,Win32,61.34969325,657b66ea316d21385b68909f,,,,,,,,,,,1708.5991,1709.5937,,,1710.0937,1710.344,,39,39,,,,,,,,,,,,,,,,bars/031.png,bars/mask004.png,,,,,,,,,,,,9,2,,,,,,,10,10,10,10,,,,,,,,,,,1709.5937,1710.0936,1710.344,1712.76,space,2.4047,,1712.7601,81,4,1713.7604,1713.7604,1713.7843,,,,0,27,27,27,1,120,35,,,,,,,,
,,6159f4cfb6b9db3c322e8b66,65af554cb73447736efa8ab8,2024-01-23_07h59.01.722,bars,2023.2.3,Win32,61.34969325,657b66ea316d21385b68909f,,,,,,,,,,,1713.7846,1714.7771,,,1715.2769,1715.5271,,39,219,,,,,,,,,,,,,,,,bars/042.png,bars/mask007.png,,,,,,,,,,,,0,2,,,,,,,8,10,8,10,,,,,,,,,,,1714.7772,1715.2769,1715.5272,1719.8408,space,4.3074,,1719.8408,74,36,1720.8434,1720.8434,1720.8641,,,,0,28,28,28,1,145,75,,,,,,,,
,,6159f4cfb6b9db3c322e8b66,65af554cb73447736efa8ab8,2024-01-23_07h59.01.722,bars,2023.2.3,Win32,61.34969325,657b66ea316d21385b68909f,,,,,,,,,,,1720.8644,1721.86,,,1722.3601,1722.61,,89,89,,,,,,,,,,,,,,,,bars/001.png,bars/mask005.png,,,,,,,,,,,,8,2,,,,,,,10,8,9,9,,,,,,,,,,,1721.86,1722.3601,1722.6101,1726.193,space,3.5675,,1726.1931,41,4,1727.1927,1727.1928,1727.2151,,,,0,29,29,29,1,130,85,,,,,,,,
,,6159f4cfb6b9db3c322e8b66,65af554cb73447736efa8ab8,2024-01-23_07h59.01.722,bars,2023.2.3,Win32,61.34969325,657b66ea316d21385b68909f,,,,,,,,,,,1727.2153,1728.2092,,,1728.7086,1728.9587,,93,93,,,,,,,,,,,,,,,,bars/023.png,bars/mask005.png,,,,,,,,,,,,3,2,,,,,,,8,10,7,10,,,,,,,,,,,1728.2092,1728.7086,1728.9587,1731.909,space,2.9385,,1731.909,73,22,1732.9087,1732.9087,1732.9162,,,,0,30,30,30,1,20,115,,,,,,,,
,,6159f4cfb6b9db3c322e8b66,65af554cb73447736efa8ab8,2024-01-23_07h59.01.722,bars,2023.2.3,Win32,61.34969325,657b66ea316d21385b68909f,,,,,,,,,,,1732.9164,1733.9089,,,1734.4084,1734.6471,,11,11,,,,,,,,,,,,,,,,bars/022.png,bars/mask000.png,,,,,,,,,,,,7,2,,,,,,,6,10,5,10,,,,,,,,,,,1733.909,1734.4083,1734.6471,1794.2221,space,59.5698,,1794.2222,84,9,1795.2221,1795.2222,1795.2482,,,,0,31,31,31,1,95,20,,,,,,,,
,,6159f4cfb6b9db3c322e8b66,65af554cb73447736efa8ab8,2024-01-23_07h59.01.722,bars,2023.2.3,Win32,61.34969325,657b66ea316d21385b68909f,,,,,,,,,,,1795.2485,1796.239,,,1796.7384,1796.989,,146,146,,,,,,,,,,,,,,,,bars/049.png,bars/mask003.png,,,,,,,,,,,,1,1,,,,,,,4,10,1,9,,,,,,,,,,,1796.239,1796.7384,1796.9891,1798.9889,space,1.9854,,1798.989,14,31,1799.9883,1799.9883,1800.0061,,,,0,32,32,32,1,160,115,,,,,,,,
,,6159f4cfb6b9db3c322e8b66,65af554cb73447736efa8ab8,2024-01-23_07h59.01.722,bars,2023.2.3,Win32,61.34969325,657b66ea316d21385b68909f,,,,,,,,,,,1800.0063,1801.0048,,,1801.5054,1801.755,,159,-21,,,,,,,,,,,,,,,,bars/012.png,bars/mask008.png,,,,,,,,,,,,0,2,,,,,,,2,8,2,8,,,,,,,,,,,1801.0049,1801.5053,1801.7551,1804.588,space,2.8107,,1804.5881,69,36,1805.5881,1805.5882,1805.6137,,,,0,33,33,33,1,90,15,,,,,,,,
,,6159f4cfb6b9db3c322e8b66,65af554cb73447736efa8ab8,2024-01-23_07h59.01.722,bars,2023.2.3,Win32,61.34969325,657b66ea316d21385b68909f,,,,,,,,,,,1805.6141,1806.6081,,,1807.1088,1807.355,,136,136,,,,,,,,,,,,,,,,bars/026.png,bars/mask009.png,,,,,,,,,,,,0,2,,,,,,,4,6,5,8,,,,,,,,,,,1806.6082,1807.1088,1807.355,1810.971,space,3.6007,,1810.9711,79,51,1811.9714,1811.9714,1811.9962,,,,0,34,34,34,1,35,85,,,,,,,,
,,6159f4cfb6b9db3c322e8b66,65af554cb73447736efa8ab8,2024-01-23_07h59.01.722,bars,2023.2.3,Win32,61.34969325,657b66ea316d21385b68909f,,,,,,,,,,,1811.9965,1812.9879,,,1813.4873,1813.7371,,159,159,,,,,,,,,,,,,,,,bars/043.png,bars/mask007.png,,,,,,,,,,,,0,2,,,,,,,6,8,5,9,,,,,,,,,,,1812.9879,1813.4873,1813.7371,1815.7207,space,1.9733,,1815.7208,51,29,1816.7208,1816.7208,1816.7218,,,,0,35,35,35,1,30,130,,,,,,,,
,,6159f4cfb6b9db3c322e8b66,65af554cb73447736efa8ab8,2024-01-23_07h59.01.722,bars,2023.2.3,Win32,61.34969325,657b66ea316d21385b68909f,,,,,,,,,,,1816.7222,1817.7205,,,1818.2209,1818.4597,,63,63,,,,,,,,,,,,,,,,bars/042.png,bars/mask006.png,,,,,,,,,,,,5,2,,,,,,,8,10,9,9,,,,,,,,,,,1817.7205,1818.2209,1818.4597,1822.8208,space,4.3351,,1822.8208,82,12,1823.8206,1823.8207,1823.8447,,,,0,36,36,36,1,145,75,,,,,,,,
,,6159f4cfb6b9db3c322e8b66,65af554cb73447736efa8ab8,2024-01-23_07h59.01.722,bars,2023.2.3,Win32,61.34969325,657b66ea316d21385b68909f,,,,,,,,,,,1823.845,1824.8371,,,1825.3369,1825.5866,,146,146,,,,,,,,,,,,,,,,bars/003.png,bars/mask007.png,,,,,,,,,,,,7,2,,,,,,,10,8,9,9,,,,,,,,,,,1824.8372,1825.3369,1825.5866,1827.8373,space,2.2313,,1827.8373,59,6,1828.837,1828.8371,1828.8383,,,,0,37,37,37,1,25,140,,,,,,,,
,,6159f4cfb6b9db3c322e8b66,65af554cb73447736efa8ab8,2024-01-23_07h59.01.722,bars,2023.2.3,Win32,61.34969325,657b66ea316d21385b68909f,,,,,,,,,,,1828.8389,1829.8369,,,1830.3366,1830.5756,,112,112,,,,,,,,,,,,,,,,bars/026.png,bars/mask005.png,,,,,,,,,,,,1,2,,,,,,,10,10,10,10,,,,,,,,,,,1829.837,1830.3365,1830.5756,1832.2534,space,1.6654,,1832.2536,77,27,1833.2533,1833.2533,1833.2548,,,,0,38,38,38,1,35,85,,,,,,,,
,,6159f4cfb6b9db3c322e8b66,65af554cb73447736efa8ab8,2024-01-23_07h59.01.722,bars,2023.2.3,Win32,61.34969325,657b66ea316d21385b68909f,,,,,,,,,,,1833.2553,1834.2533,,,1834.7532,1835.0032,,43,43,,,,,,,,,,,,,,,,bars/047.png,bars/mask009.png,,,,,,,,,,,,1,2,,,,,,,10,10,10,10,,,,,,,,,,,1834.2533,1834.7531,1835.0032,1837.3366,space,2.3171,,1837.3366,28,27,1838.3364,1838.3364,1838.3634,,,,0,39,39,39,1,15,70,,,,,,,,
,,6159f4cfb6b9db3c322e8b66,65af554cb73447736efa8ab8,2024-01-23_07h59.01.722,bars,2023.2.3,Win32,61.34969325,657b66ea316d21385b68909f,,,,,,,,,,,1838.3638,1839.3533,,,1839.8532,1840.1029,,158,-22,,,,,,,,,,,,,,,,bars/048.png,bars/mask001.png,,,,,,,,,,,,3,2,,,,,,,8,8,7,7,,,,,,,,,,,1839.3533,1839.8532,1840.103,1843.3528,space,3.2347,,1843.3529,72,17,1844.3527,1844.3528,1844.3764,,,,0,40,40,40,1,50,175,,,,,,,,
,,6159f4cfb6b9db3c322e8b66,65af554cb73447736efa8ab8,2024-01-23_07h59.01.722,bars,2023.2.3,Win32,61.34969325,657b66ea316d21385b68909f,,,,,,,,,,,1844.3767,1845.3688,,,1845.8696,1846.1196,,145,-35,,,,,,,,,,,,,,,,bars/000.png,bars/mask007.png,,,,,,,,,,,,7,2,,,,,,,10,6,10,7,,,,,,,,,,,1845.3689,1845.8696,1846.1197,1848.9862,space,2.8506,,1848.9863,75,0,1849.9853,1849.9853,1850.0001,,,,0,41,41,41,1,40,145,,,,,,,,
,,6159f4cfb6b9db3c322e8b66,65af554cb73447736efa8ab8,2024-01-23_07h59.01.722,bars,2023.2.3,Win32,61.34969325,657b66ea316d21385b68909f,,,,,,,,,,,1850.0004,1851.0025,,,1851.5023,1851.7523,,144,-36,,,,,,,,,,,,,,,,bars/049.png,bars/mask006.png,,,,,,,,,,,,5,1,,,,,,,10,4,10,4,,,,,,,,,,,1851.0025,1851.5022,1851.7523,1856.4513,space,4.6816,,1856.4513,16,29,1857.452,1857.4521,1857.4762,,,,0,42,42,42,1,160,115,,,,,,,,
,,6159f4cfb6b9db3c322e8b66,65af554cb73447736efa8ab8,2024-01-23_07h59.01.722,bars,2023.2.3,Win32,61.34969325,657b66ea316d21385b68909f,,,,,,,,,,,1857.4764,1858.4678,,,1858.9681,1859.2178,,30,210,,,,,,,,,,,,,,,,bars/010.png,bars/mask008.png,,,,,,,,,,,,1,2,,,,,,,8,6,7,7,,,,,,,,,,,1858.4678,1858.9681,1859.2179,1861.4849,space,2.2585,,1861.485,45,25,1862.485,1862.4851,1862.5092,,,,0,43,43,43,1,165,55,,,,,,,,
,,6159f4cfb6b9db3c322e8b66,65af554cb73447736efa8ab8,2024-01-23_07h59.01.722,bars,2023.2.3,Win32,61.34969325,657b66ea316d21385b68909f,,,,,,,,,,,1862.5095,1863.501,,,2072.8212,2072.8299,,17,197,,,,,,,,,,,,,,,,bars/005.png,bars/mask004.png,,,,,,,,,,,,8,1,,,,,,,10,8,10,9,,,,,,,,,,,1863.501,2072.8212,2072.83,2076.7884,space,3.9458,,2076.7884,7,57,2077.7884,2077.7884,2077.8089,,,,0,44,44,44,1,10,140,,,,,,,,
,,6159f4cfb6b9db3c322e8b66,65af554cb73447736efa8ab8,2024-01-23_07h59.01.722,bars,2023.2.3,Win32,61.34969325,657b66ea316d21385b68909f,,,,,,,,,,,2077.8091,2078.8054,,,2079.3055,2079.5555,,20,200,,,,,,,,,,,,,,,,bars/013.png,bars/mask001.png,,,,,,,,,,,,7,2,,,,,,,10,10,10,10,,,,,,,,,,,2078.8055,2079.3055,2079.5556,2082.2222,space,2.6524,,2082.2223,55,10,2083.2217,2083.2218,2083.2465,,,,0,45,45,45,1,75,10,,,,,,,,
,,6159f4cfb6b9db3c322e8b66,65af554cb73447736efa8ab8,2024-01-23_07h59.01.722,bars,2023.2.3,Win32,61.34969325,657b66ea316d21385b68909f,,,,,,,,,,,2083.2468,2084.2427,,,2084.7387,2084.9883,,145,-35,,,,,,,,,,,,,,,,bars/004.png,bars/mask009.png,,,,,,,,,,,,3,2,,,,,,,8,8,7,8,,,,,,,,,,,2084.2427,2084.7387,2084.9883,2089.5712,space,4.5747,,2089.5713,60,20,2090.5711,2090.5711,2090.5877,,,,0,46,46,46,1,25,125,,,,,,,,
,,6159f4cfb6b9db3c322e8b66,65af554cb73447736efa8ab8,2024-01-23_07h59.01.722,bars,2023.2.3,Win32,61.34969325,657b66ea316d21385b68909f,,,,,,,,,,,2090.5878,2091.5881,,,2092.0882,2092.3381,,30,210,,,,,,,,,,,,,,,,bars/022.png,bars/mask007.png,,,,,,,,,,,,7,2,,,,,,,10,10,10,10,,,,,,,,,,,2091.5881,2092.0881,2092.3382,2096.3378,space,3.9893,,2096.3378,65,10,2097.3377,2097.3377,2097.3615,,,,0,47,47,47,1,95,20,,,,,,,,
,,6159f4cfb6b9db3c322e8b66,65af554cb73447736efa8ab8,2024-01-23_07h59.01.722,bars,2023.2.3,Win32,61.34969325,657b66ea316d21385b68909f,,,,,,,,,,,2097.3618,2098.3542,,,2098.8539,2099.1043,,161,-19,,,,,,,,,,,,,,,,bars/008.png,bars/mask009.png,,,,,,,,,,,,3,2,,,,,,,8,8,8,8,,,,,,,,,,,2098.3543,2098.8539,2099.1044,2101.3544,space,2.2341,,2101.3544,51,19,2102.3569,2102.357,2102.378,,,,0,48,48,48,1,110,0,,,,,,,,
,,6159f4cfb6b9db3c322e8b66,65af554cb73447736efa8ab8,2024-01-23_07h59.01.722,bars,2023.2.3,Win32,61.34969325,657b66ea316d21385b68909f,,,,,,,,,,,2102.3782,2103.3706,,,2103.8704,2104.1217,,150,150,,,,,,,,,,,,,,,,bars/008.png,bars/mask004.png,,,,,,,,,,,,0,2,,,,,,,10,6,10,6,,,,,,,,,,,2103.3707,2103.8703,2104.1218,2106.5875,space,2.4493,,2106.5876,40,30,2107.5872,2107.5872,2107.6078,,,,0,49,49,49,1,110,0,,,,,,,,
,,6159f4cfb6b9db3c322e8b66,65af554cb73447736efa8ab8,2024-01-23_07h59.01.722,bars,2023.2.3,Win32,61.34969325,657b66ea316d21385b68909f,,,,,,,,,,,,,,,,,,,,,,,,,,,,,,,,,,,,,,,,,,,,,,,,,,,,,,,,,,,,,,,,,,,,,,,,,,,,,,,,,,,,,,,,,,,,,2107.608,2166.6329,0,1,1,3,1,sequence_tables/blk029.csv
,,6159f4cfb6b9db3c322e8b66,65af554cb73447736efa8ab8,2024-01-23_07h59.01.722,bars,2023.2.3,Win32,61.34969325,657b66ea316d21385b68909f,,,,,,,,,,,2168.0462,2169.0503,,,2169.5503,2169.8001,,48,48,,,,,,,,,,,,,,,,bars/042.png,bars/mask007.png,,,,,,,,,,,,1,2,,,,,,,10,7,10,6,,,,,,2166.6403,2168.0337,space,1.3782,,2169.0504,2169.5502,2169.8001,2171.5332,space,1.723,,2171.5333,83,27,2172.5329,2172.533,2172.5348,,,,0,0,0,0,1,145,75,,,,,,,,
,,6159f4cfb6b9db3c322e8b66,65af554cb73447736efa8ab8,2024-01-23_07h59.01.722,bars,2023.2.3,Win32,61.34969325,657b66ea316d21385b68909f,,,,,,,,,,,2172.5357,2173.5334,,,2174.033,2174.2833,,156,156,,,,,,,,,,,,,,,,bars/015.png,bars/mask009.png,,,,,,,,,,,,4,2,,,,,,,8,5,5,5,,,,,,,,,,,2173.5335,2174.033,2174.2833,2176.2161,space,1.9193,,2176.2163,46,4,2177.2182,2177.2182,2177.2296,,,,0,1,1,1,1,110,160,,,,,,,,
,,6159f4cfb6b9db3c322e8b66,65af554cb73447736efa8ab8,2024-01-23_07h59.01.722,bars,2023.2.3,Win32,61.34969325,657b66ea316d21385b68909f,,,,,,,,,,,2177.2297,2178.2328,,,2178.7327,2178.982,,33,33,,,,,,,,,,,,,,,,bars/010.png,bars/mask007.png,,,,,,,,,,,,1,2,,,,,,,10,3,10,3,,,,,,,,,,,2178.2329,2178.7325,2178.9821,2180.6157,space,1.6216,,2180.6157,48,22,2181.6159,2181.616,2181.6174,,,,0,2,2,2,1,165,55,,,,,,,,
,,6159f4cfb6b9db3c322e8b66,65af554cb73447736efa8ab8,2024-01-23_07h59.01.722,bars,2023.2.3,Win32,61.34969325,657b66ea316d21385b68909f,,,,,,,,,,,2181.618,2182.6154,,,2183.1158,2183.3658,,118,118,,,,,,,,,,,,,,,,bars/041.png,bars/mask008.png,,,,,,,,,,,,0,2,,,,,,,10,1,10,1,,,,,,,,,,,2182.6154,2183.1158,2183.3658,2187.1317,space,3.7539,,2187.1317,82,33,2188.132,2188.132,2188.1544,,,,0,3,3,3,1,20,85,,,,,,,,
,,6159f4cfb6b9db3c322e8b66,65af554cb73447736efa8ab8,2024-01-23_07h59.01.722,bars,2023.2.3,Win32,61.34969325,657b66ea316d21385b68909f,,,,,,,,,,,2188.1547,2189.1491,,,2189.6484,2189.8988,,39,39,,,,,,,,,,,,,,,,bars/030.png,bars/mask007.png,,,,,,,,,,,,1,2,,,,,,,8,3,7,4,,,,,,,,,,,2189.1491,2189.6484,2189.8989,2191.8316,space,1.9155,,2191.8316,79,26,2192.8319,2192.8319,2192.8553,,,,0,4,4,4,1,140,65,,,,,,,,
,,6159f4cfb6b9db3c322e8b66,65af554cb73447736efa8ab8,2024-01-23_07h59.01.722,bars,2023.2.3,Win32,61.34969325,657b66ea316d21385b68909f,,,,,,,,,,,2192.8555,2193.8486,,,2194.3486,2194.5982,,45,45,,,,,,,,,,,,,,,,bars/034.png,bars/mask007.png,,,,,,,,,,,,1,2,,,,,,,10,5,9,4,,,,,,,,,,,2193.8486,2194.3486,2194.5982,2196.3649,space,1.7497,,2196.3649,80,20,2197.3649,2197.3649,2197.3898,,,,0,5,5,5,1,125,65,,,,,,,,
,,6159f4cfb6b9db3c322e8b66,65af554cb73447736efa8ab8,2024-01-23_07h59.01.722,bars,2023.2.3,Win32,61.34969325,657b66ea316d21385b68909f,,,,,,,,,,,2197.3901,2198.3818,,,2198.8815,2199.1316,,131,131,,,,,,,,,,,,,,,,bars/004.png,bars/mask008.png,,,,,,,,,,,,6,2,,,,,,,8,7,9,7,,,,,,,,,,,2198.3818,2198.8815,2199.1316,2201.4983,space,2.3535,,2201.4984,74,6,2202.4982,2202.4983,2202.4996,,,,0,6,6,6,1,25,125,,,,,,,,
,,6159f4cfb6b9db3c322e8b66,65af554cb73447736efa8ab8,2024-01-23_07h59.01.722,bars,2023.2.3,Win32,61.34969325,657b66ea316d21385b68909f,,,,,,,,,,,2202.5002,2203.498,,,2203.9982,2204.2482,,166,166,,,,,,,,,,,,,,,,bars/045.png,bars/mask000.png,,,,,,,,,,,,1,2,,,,,,,6,5,6,4,,,,,,,,,,,2203.498,2203.9982,2204.2483,2205.8481,space,1.5686,,2205.8482,66,24,2206.8475,2206.8475,2206.8627,,,,0,7,7,7,1,100,10,,,,,,,,
,,6159f4cfb6b9db3c322e8b66,65af554cb73447736efa8ab8,2024-01-23_07h59.01.722,bars,2023.2.3,Win32,61.34969325,657b66ea316d21385b68909f,,,,,,,,,,,2206.8628,2207.8645,,,2208.3645,2208.6137,,37,217,,,,,,,,,,,,,,,,bars/034.png,bars/mask005.png,,,,,,,,,,,,1,2,,,,,,,8,7,9,9,,,,,,,,,,,2207.8646,2208.3645,2208.6137,2211.0138,space,2.3676,,2211.0138,88,28,2212.0144,2212.0144,2212.0297,,,,0,8,8,8,1,125,65,,,,,,,,
,,6159f4cfb6b9db3c322e8b66,65af554cb73447736efa8ab8,2024-01-23_07h59.01.722,bars,2023.2.3,Win32,61.34969325,657b66ea316d21385b68909f,,,,,,,,,,,2212.03,2213.031,,,2213.5304,2213.781,,160,-20,,,,,,,,,,,,,,,,bars/043.png,bars/mask001.png,,,,,,,,,,,,0,2,,,,,,,10,9,10,9,,,,,,,,,,,2213.0311,2213.5304,2213.781,2216.1972,space,2.4055,,2216.1973,50,30,2217.1973,2217.1973,2217.2206,,,,0,9,9,9,1,30,130,,,,,,,,
,,6159f4cfb6b9db3c322e8b66,65af554cb73447736efa8ab8,2024-01-23_07h59.01.722,bars,2023.2.3,Win32,61.34969325,657b66ea316d21385b68909f,,,,,,,,,,,2217.2208,2218.2139,,,2218.714,2218.9636,,103,103,,,,,,,,,,,,,,,,bars/023.png,bars/mask008.png,,,,,,,,,,,,6,2,,,,,,,10,10,10,10,,,,,,,,,,,2218.214,2218.7139,2218.9636,2221.5804,space,2.6019,,2221.5806,83,12,2222.5802,2222.5803,2222.5818,,,,0,10,10,10,1,20,115,,,,,,,,
,,6159f4cfb6b9db3c322e8b66,65af554cb73447736efa8ab8,2024-01-23_07h59.01.722,bars,2023.2.3,Win32,61.34969325,657b66ea316d21385b68909f,,,,,,,,,,,2222.5824,2223.5801,,,2224.0801,2224.3299,,61,61,,,,,,,,,,,,,,,,bars/030.png,bars/mask001.png,,,,,,,,,,,,8,2,,,,,,,10,10,10,9,,,,,,,,,,,2223.5801,2224.0801,2224.33,2226.4968,space,2.1548,,2226.4969,79,4,2227.4967,2227.4968,2227.5211,,,,0,11,11,11,1,140,65,,,,,,,,
,,6159f4cfb6b9db3c322e8b66,65af554cb73447736efa8ab8,2024-01-23_07h59.01.722,bars,2023.2.3,Win32,61.34969325,657b66ea316d21385b68909f,,,,,,,,,,,2227.5215,2228.5131,,,2229.0132,2229.263,,50,50,,,,,,,,,,,,,,,,bars/034.png,bars/mask001.png,,,,,,,,,,,,5,2,,,,,,,8,8,7,9,,,,,,,,,,,2228.5131,2229.0131,2229.2632,2230.7466,space,1.4677,,2230.7467,75,15,2231.7465,2231.7465,2231.748,,,,0,12,12,12,1,125,65,,,,,,,,
,,6159f4cfb6b9db3c322e8b66,65af554cb73447736efa8ab8,2024-01-23_07h59.01.722,bars,2023.2.3,Win32,61.34969325,657b66ea316d21385b68909f,,,,,,,,,,,2231.7487,2232.7462,,,2233.2463,2233.4964,,161,161,,,,,,,,,,,,,,,,bars/024.png,bars/mask003.png,,,,,,,,,,,,7,2,,,,,,,10,10,10,10,,,,,,,,,,,2232.7462,2233.2463,2233.4965,2234.2457,space,0.7299,,2234.2458,41,9,2235.2459,2235.246,2235.2479,,,,0,13,13,13,1,120,170,,,,,,,,
,,6159f4cfb6b9db3c322e8b66,65af554cb73447736efa8ab8,2024-01-23_07h59.01.722,bars,2023.2.3,Win32,61.34969325,657b66ea316d21385b68909f,,,,,,,,,,,2235.2488,2236.2461,,,2236.7464,2236.996,,96,96,,,,,,,,,,,,,,,,bars/028.png,bars/mask007.png,,,,,,,,,,,,2,2,,,,,,,10,10,10,10,,,,,,,,,,,2236.2462,2236.7462,2236.9961,2239.6291,space,2.6247,,2239.6291,51,24,2240.6289,2240.6289,2240.6298,,,,0,14,14,14,1,45,120,,,,,,,,
,,6159f4cfb6b9db3c322e8b66,65af554cb73447736efa8ab8,2024-01-23_07h59.01.722,bars,2023.2.3,Win32,61.34969325,657b66ea316d21385b68909f,,,,,,,,,,,2240.6302,2241.6291,,,2242.1289,2242.3794,,42,42,,,,,,,,,,,,,,,,bars/031.png,bars/mask001.png,,,,,,,,,,,,6,2,,,,,,,8,8,8,8,,,,,,,,,,,2241.6293,2242.1289,2242.3795,2244.0117,space,1.6177,,2244.0117,78,7,2245.0117,2245.0117,2245.0215,,,,0,15,15,15,1,120,35,,,,,,,,
,,6159f4cfb6b9db3c322e8b66,65af554cb73447736efa8ab8,2024-01-23_07h59.01.722,bars,2023.2.3,Win32,61.34969325,657b66ea316d21385b68909f,,,,,,,,,,,2245.0216,2246.012,,,2246.5125,2246.7619,,142,142,,,,,,,,,,,,,,,,bars/014.png,bars/mask004.png,,,,,,,,,,,,0,2,,,,,,,6,10,5,8,,,,,,,,,,,2246.012,2246.5124,2246.762,2249.0787,space,2.3041,,2249.0788,62,38,2250.0787,2250.0787,2250.1,,,,0,16,16,16,1,80,0,,,,,,,,
,,6159f4cfb6b9db3c322e8b66,65af554cb73447736efa8ab8,2024-01-23_07h59.01.722,bars,2023.2.3,Win32,61.34969325,657b66ea316d21385b68909f,,,,,,,,,,,2250.1003,2251.0952,,,2251.5953,2251.8453,,22,202,,,,,,,,,,,,,,,,bars/032.png,bars/mask000.png,,,,,,,,,,,,9,2,,,,,,,4,10,5,10,,,,,,,,,,,2251.0953,2251.5952,2251.8454,2255.5441,space,3.6904,,2255.5441,77,2,2256.5449,2256.545,2256.5662,,,,0,17,17,17,1,125,20,,,,,,,,
,,6159f4cfb6b9db3c322e8b66,65af554cb73447736efa8ab8,2024-01-23_07h59.01.722,bars,2023.2.3,Win32,61.34969325,657b66ea316d21385b68909f,,,,,,,,,,,2256.5664,2257.5609,,,2258.0617,2258.3116,,136,136,,,,,,,,,,,,,,,,bars/008.png,bars/mask006.png,,,,,,,,,,,,1,1,,,,,,,6,8,5,9,,,,,,,,,,,2257.561,2258.0616,2258.3116,2260.5115,space,2.1898,,2260.5116,26,44,2261.5113,2261.5113,2261.5338,,,,0,18,18,18,1,110,0,,,,,,,,
,,6159f4cfb6b9db3c322e8b66,65af554cb73447736efa8ab8,2024-01-23_07h59.01.722,bars,2023.2.3,Win32,61.34969325,657b66ea316d21385b68909f,,,,,,,,,,,2261.5341,2262.528,,,2263.028,2263.2779,,66,66,,,,,,,,,,,,,,,,bars/021.png,bars/mask009.png,,,,,,,,,,,,9,2,,,,,,,8,10,9,10,,,,,,,,,,,2262.528,2263.028,2263.278,2267.494,space,4.1987,,2267.4941,89,4,2268.482,2268.482,2268.4947,,,,0,19,19,19,1,155,70,,,,,,,,
,,6159f4cfb6b9db3c322e8b66,65af554cb73447736efa8ab8,2024-01-23_07h59.01.722,bars,2023.2.3,Win32,61.34969325,657b66ea316d21385b68909f,,,,,,,,,,,2268.495,2269.4937,,,2269.9944,2270.2441,,131,131,,,,,,,,,,,,,,,,bars/005.png,bars/mask002.png,,,,,,,,,,,,6,2,,,,,,,10,10,10,9,,,,,,,,,,,2269.4937,2269.9943,2270.2441,2273.3771,space,3.1263,,2273.3772,59,9,2274.3771,2274.3771,2274.4001,,,,0,20,20,20,1,10,140,,,,,,,,
,,6159f4cfb6b9db3c322e8b66,65af554cb73447736efa8ab8,2024-01-23_07h59.01.722,bars,2023.2.3,Win32,61.34969325,657b66ea316d21385b68909f,,,,,,,,,,,2274.4003,2275.3939,,,2275.8937,2276.1436,,164,164,,,,,,,,,,,,,,,,bars/048.png,bars/mask006.png,,,,,,,,,,,,5,2,,,,,,,10,8,10,8,,,,,,,,,,,2275.394,2275.8936,2276.1436,2277.3095,space,1.1585,,2277.3096,66,11,2278.3102,2278.3102,2278.3122,,,,0,21,21,21,1,50,175,,,,,,,,
,,6159f4cfb6b9db3c322e8b66,65af554cb73447736efa8ab8,2024-01-23_07h59.01.722,bars,2023.2.3,Win32,61.34969325,657b66ea316d21385b68909f,,,,,,,,,,,2278.3127,2279.3104,,,2279.8103,2280.0604,,29,29,,,,,,,,,,,,,,,,bars/036.png,bars/mask002.png,,,,,,,,,,,,3,2,,,,,,,8,6,8,4,,,,,,,,,,,2279.3105,2279.8102,2280.0604,2283.1925,space,3.1166,,2283.1925,64,9,2284.1925,2284.1926,2284.1994,,,,0,22,22,22,1,145,20,,,,,,,,
,,6159f4cfb6b9db3c322e8b66,65af554cb73447736efa8ab8,2024-01-23_07h59.01.722,bars,2023.2.3,Win32,61.34969325,657b66ea316d21385b68909f,,,,,,,,,,,2284.1997,2285.1924,,,2285.6931,2285.9432,,50,50,,,,,,,,,,,,,,,,bars/017.png,bars/mask003.png,,,,,,,,,,,,3,2,,,,,,,6,4,5,4,,,,,,,,,,,2285.1924,2285.693,2285.9433,2288.4926,space,2.542,,2288.4927,85,5,2289.4923,2289.4923,2289.5017,,,,0,23,23,23,1,145,45,,,,,,,,
,,6159f4cfb6b9db3c322e8b66,65af554cb73447736efa8ab8,2024-01-23_07h59.01.722,bars,2023.2.3,Win32,61.34969325,657b66ea316d21385b68909f,,,,,,,,,,,2289.5018,2290.4931,,,2290.9923,2291.2422,,108,108,,,,,,,,,,,,,,,,bars/021.png,bars/mask008.png,,,,,,,,,,,,0,2,,,,,,,8,6,8,7,,,,,,,,,,,2290.4932,2290.9923,2291.2422,2294.2594,space,3.004,,2294.2596,47,38,2295.2593,2295.2594,2295.2815,,,,0,24,24,24,1,155,70,,,,,,,,
,,6159f4cfb6b9db3c322e8b66,65af554cb73447736efa8ab8,2024-01-23_07h59.01.722,bars,2023.2.3,Win32,61.34969325,657b66ea316d21385b68909f,,,,,,,,,,,2295.2818,2296.276,,,2296.7761,2297.0261,,2,182,,,,,,,,,,,,,,,,bars/048.png,bars/mask006.png,,,,,,,,,,,,5,2,,,,,,,6,8,7,7,,,,,,,,,,,2296.2761,2296.776,2297.0261,2300.8918,space,3.8572,,2300.8918,48,7,2301.8923,2301.8924,2301.9112,,,,0,25,25,25,1,50,175,,,,,,,,
,,6159f4cfb6b9db3c322e8b66,65af554cb73447736efa8ab8,2024-01-23_07h59.01.722,bars,2023.2.3,Win32,61.34969325,657b66ea316d21385b68909f,,,,,,,,,,,2301.9116,2302.909,,,2303.4087,2303.6585,,25,25,,,,,,,,,,,,,,,,bars/017.png,bars/mask001.png,,,,,,,,,,,,3,2,,,,,,,8,10,8,10,,,,,,,,,,,2302.909,2303.4087,2303.6586,2305.4921,space,1.8063,,2305.4921,60,20,2306.4913,2306.4913,2306.4918,,,,0,26,26,26,1,145,45,,,,,,,,
,,6159f4cfb6b9db3c322e8b66,65af554cb73447736efa8ab8,2024-01-23_07h59.01.722,bars,2023.2.3,Win32,61.34969325,657b66ea316d21385b68909f,,,,,,,,,,,2306.4921,2307.4916,,,2307.9922,2308.2419,,16,196,,,,,,,,,,,,,,,,bars/040.png,bars/mask007.png,,,,,,,,,,,,6,2,,,,,,,6,10,6,10,,,,,,,,,,,2307.4916,2307.992,2308.2419,2310.0248,space,1.7722,,2310.0249,56,11,2311.025,2311.0251,2311.0474,,,,0,27,27,27,1,140,5,,,,,,,,
,,6159f4cfb6b9db3c322e8b66,65af554cb73447736efa8ab8,2024-01-23_07h59.01.722,bars,2023.2.3,Win32,61.34969325,657b66ea316d21385b68909f,,,,,,,,,,,2311.0477,2312.0412,,,2312.5418,2312.7916,,151,-29,,,,,,,,,,,,,,,,bars/003.png,bars/mask002.png,,,,,,,,,,,,6,2,,,,,,,8,10,9,10,,,,,,,,,,,2312.0412,2312.5418,2312.7917,2314.5593,space,1.7609,,2314.5593,54,11,2315.5579,2315.5581,2315.5837,,,,0,28,28,28,1,25,140,,,,,,,,
,,6159f4cfb6b9db3c322e8b66,65af554cb73447736efa8ab8,2024-01-23_07h59.01.722,bars,2023.2.3,Win32,61.34969325,657b66ea316d21385b68909f,,,,,,,,,,,2315.584,2316.5745,,,2317.0747,2317.3248,,147,147,,,,,,,,,,,,,,,,bars/045.png,bars/mask004.png,,,,,,,,,,,,0,2,,,,,,,10,10,10,10,,,,,,,,,,,2316.5746,2317.0747,2317.3248,2318.0072,space,0.6699,,2318.0072,47,43,2319.008,2319.008,2319.0092,,,,0,29,29,29,1,100,10,,,,,,,,
,,6159f4cfb6b9db3c322e8b66,65af554cb73447736efa8ab8,2024-01-23_07h59.01.722,bars,2023.2.3,Win32,61.34969325,657b66ea316d21385b68909f,,,,,,,,,,,2319.0098,2320.008,,,2320.507,2320.7572,,166,-14,,,,,,,,,,,,,,,,bars/024.png,bars/mask005.png,,,,,,,,,,,,6,2,,,,,,,8,8,9,7,,,,,,,,,,,2320.008,2320.507,2320.7572,2323.2408,space,2.4765,,2323.2409,46,4,2324.2407,2324.2408,2324.2645,,,,0,30,30,30,1,120,170,,,,,,,,
,,6159f4cfb6b9db3c322e8b66,65af554cb73447736efa8ab8,2024-01-23_07h59.01.722,bars,2023.2.3,Win32,61.34969325,657b66ea316d21385b68909f,,,,,,,,,,,2324.2647,2325.2573,,,2325.7577,2326.0068,,77,77,,,,,,,,,,,,,,,,bars/026.png,bars/mask008.png,,,,,,,,,,,,6,2,,,,,,,10,6,8,8,,,,,,,,,,,2325.2574,2325.7576,2326.0068,2327.6906,space,1.6525,,2327.6907,42,8,2328.69,2328.69,2328.6909,,,,0,31,31,31,1,35,85,,,,,,,,
,,6159f4cfb6b9db3c322e8b66,65af554cb73447736efa8ab8,2024-01-23_07h59.01.722,bars,2023.2.3,Win32,61.34969325,657b66ea316d21385b68909f,,,,,,,,,,,2328.6912,2329.6906,,,2330.19,2330.4407,,132,132,,,,,,,,,,,,,,,,bars/004.png,bars/mask002.png,,,,,,,,,,,,7,2,,,,,,,10,8,10,9,,,,,,,,,,,2329.6907,2330.19,2330.4407,2332.7071,space,2.2566,,2332.7072,73,7,2333.7067,2333.7068,2333.7256,,,,0,32,32,32,1,25,125,,,,,,,,
,,6159f4cfb6b9db3c322e8b66,65af554cb73447736efa8ab8,2024-01-23_07h59.01.722,bars,2023.2.3,Win32,61.34969325,657b66ea316d21385b68909f,,,,,,,,,,,2333.7258,2334.7232,,,2335.2237,2335.4731,,132,132,,,,,,,,,,,,,,,,bars/015.png,bars/mask001.png,,,,,,,,,,,,3,1,,,,,,,10,10,10,10,,,,,,,,,,,2334.7233,2335.2237,2335.4731,2338.7234,space,3.24,,2338.7235,22,28,2339.7224,2339.7224,2339.7298,,,,0,33,33,33,1,110,160,,,,,,,,
,,6159f4cfb6b9db3c322e8b66,65af554cb73447736efa8ab8,2024-01-23_07h59.01.722,bars,2023.2.3,Win32,61.34969325,657b66ea316d21385b68909f,,,,,,,,,,,2339.7299,2340.7228,,,2341.2226,2341.4733,,28,28,,,,,,,,,,,,,,,,bars/040.png,bars/mask000.png,,,,,,,,,,,,2,2,,,,,,,8,8,7,9,,,,,,,,,,,2340.7229,2341.2226,2341.4734,2343.3224,space,1.8411,,2343.3224,68,23,2344.3229,2344.3229,2344.3267,,,,0,34,34,34,1,140,5,,,,,,,,
,,6159f4cfb6b9db3c322e8b66,65af554cb73447736efa8ab8,2024-01-23_07h59.01.722,bars,2023.2.3,Win32,61.34969325,657b66ea316d21385b68909f,,,,,,,,,,,2344.3272,2345.3231,,,2345.8229,2346.0726,,41,41,,,,,,,,,,,,,,,,bars/036.png,bars/mask009.png,,,,,,,,,,,,3,2,,,,,,,6,10,6,9,,,,,,,,,,,2345.3231,2345.8228,2346.0726,2348.8228,space,2.7449,,2348.8228,76,21,2349.8224,2349.8226,2349.8436,,,,0,35,35,35,1,145,20,,,,,,,,
,,6159f4cfb6b9db3c322e8b66,65af554cb73447736efa8ab8,2024-01-23_07h59.01.722,bars,2023.2.3,Win32,61.34969325,657b66ea316d21385b68909f,,,,,,,,,,,2349.8437,2350.8386,,,2351.3428,2351.5891,,83,83,,,,,,,,,,,,,,,,bars/006.png,bars/mask002.png,,,,,,,,,,,,3,2,,,,,,,4,8,3,6,,,,,,,,,,,2350.8386,2351.3427,2351.5892,2356.3557,space,4.7363,,2356.3558,48,17,2357.3556,2357.3557,2357.3808,,,,0,36,36,36,1,35,100,,,,,,,,
,,6159f4cfb6b9db3c322e8b66,65af554cb73447736efa8ab8,2024-01-23_07h59.01.722,bars,2023.2.3,Win32,61.34969325,657b66ea316d21385b68909f,,,,,,,,,,,2357.3812,2358.3723,,,2358.8714,2359.1217,,62,62,,,,,,,,,,,,,,,,bars/010.png,bars/mask008.png,,,,,,,,,,,,8,2,,,,,,,6,10,6,10,,,,,,,,,,,2358.3724,2358.8713,2359.1218,2361.0384,space,1.9039,,2361.0384,77,7,2362.0384,2362.0384,2362.055,,,,0,37,37,37,1,165,55,,,,,,,,
,,6159f4cfb6b9db3c322e8b66,65af554cb73447736efa8ab8,2024-01-23_07h59.01.722,bars,2023.2.3,Win32,61.34969325,657b66ea316d21385b68909f,,,,,,,,,,,2362.0553,2363.0554,,,2363.5554,2363.8053,,45,45,,,,,,,,,,,,,,,,bars/021.png,bars/mask008.png,,,,,,,,,,,,2,2,,,,,,,8,10,10,10,,,,,,,,,,,2363.0554,2363.5553,2363.8053,2365.6213,space,1.8002,,2365.6213,70,25,2366.6214,2366.6214,2366.6221,,,,0,38,38,38,1,155,70,,,,,,,,
,,6159f4cfb6b9db3c322e8b66,65af554cb73447736efa8ab8,2024-01-23_07h59.01.722,bars,2023.2.3,Win32,61.34969325,657b66ea316d21385b68909f,,,,,,,,,,,2366.6223,2367.6215,,,2368.1216,2368.3717,,22,22,,,,,,,,,,,,,,,,bars/008.png,bars/mask000.png,,,,,,,,,,,,2,2,,,,,,,10,8,9,7,,,,,,,,,,,2367.6215,2368.1216,2368.3718,2370.3382,space,1.9602,,2370.3383,88,22,2371.3382,2371.3382,2371.3631,,,,0,39,39,39,1,110,0,,,,,,,,
,,6159f4cfb6b9db3c322e8b66,65af554cb73447736efa8ab8,2024-01-23_07h59.01.722,bars,2023.2.3,Win32,61.34969325,657b66ea316d21385b68909f,,,,,,,,,,,2371.3633,2372.3543,,,2372.8538,2373.1048,,30,210,,,,,,,,,,,,,,,,bars/017.png,bars/mask007.png,,,,,,,,,,,,3,2,,,,,,,10,6,9,5,,,,,,,,,,,2372.3544,2372.8538,2373.1049,2376.5873,space,3.4648,,2376.5874,65,15,2377.5876,2377.5877,2377.6112,,,,0,40,40,40,1,145,45,,,,,,,,
,,6159f4cfb6b9db3c322e8b66,65af554cb73447736efa8ab8,2024-01-23_07h59.01.722,bars,2023.2.3,Win32,61.34969325,657b66ea316d21385b68909f,,,,,,,,,,,2377.6114,2378.6043,,,2379.1043,2379.3544,,149,-31,,,,,,,,,,,,,,,,bars/018.png,bars/mask008.png,,,,,,,,,,,,9,1,,,,,,,10,4,9,5,,,,,,,,,,,2378.6044,2379.1043,2379.3544,2381.971,space,2.6009,,2381.971,1,59,2382.971,2382.9711,2382.9742,,,,0,41,41,41,1,150,90,,,,,,,,
,,6159f4cfb6b9db3c322e8b66,65af554cb73447736efa8ab8,2024-01-23_07h59.01.722,bars,2023.2.3,Win32,61.34969325,657b66ea316d21385b68909f,,,,,,,,,,,2382.9748,2383.9703,,,2384.4706,2384.7204,,30,210,,,,,,,,,,,,,,,,bars/035.png,bars/mask003.png,,,,,,,,,,,,0,2,,,,,,,8,2,10,2,,,,,,,,,,,2383.9703,2384.4705,2384.7204,2387.8373,space,3.1076,,2387.8374,35,30,2388.8381,2388.8381,2388.8653,,,,0,42,42,42,1,175,60,,,,,,,,
,,6159f4cfb6b9db3c322e8b66,65af554cb73447736efa8ab8,2024-01-23_07h59.01.722,bars,2023.2.3,Win32,61.34969325,657b66ea316d21385b68909f,,,,,,,,,,,2388.8655,2389.8541,,,2390.3539,2390.6032,,127,127,,,,,,,,,,,,,,,,bars/019.png,bars/mask000.png,,,,,,,,,,,,1,2,,,,,,,6,4,6,3,,,,,,,,,,,2389.8541,2390.3538,2390.6032,2391.5198,space,0.9116,,2391.5199,82,22,2392.5203,2392.5203,2392.522,,,,0,43,43,43,1,45,105,,,,,,,,
,,6159f4cfb6b9db3c322e8b66,65af554cb73447736efa8ab8,2024-01-23_07h59.01.722,bars,2023.2.3,Win32,61.34969325,657b66ea316d21385b68909f,,,,,,,,,,,2392.5228,2393.52,,,2394.0194,2394.2701,,21,21,,,,,,,,,,,,,,,,bars/012.png,bars/mask006.png,,,,,,,,,,,,3,2,,,,,,,4,2,4,4,,,,,,,,,,,2393.52,2394.0194,2394.2701,2395.7363,space,1.4537,,2395.7364,69,6,2396.7371,2396.7371,2396.7389,,,,0,44,44,44,1,90,15,,,,,,,,
,,6159f4cfb6b9db3c322e8b66,65af554cb73447736efa8ab8,2024-01-23_07h59.01.722,bars,2023.2.3,Win32,61.34969325,657b66ea316d21385b68909f,,,,,,,,,,,2396.7395,2397.736,,,2398.2367,2398.4861,,24,204,,,,,,,,,,,,,,,,bars/025.png,bars/mask009.png,,,,,,,,,,,,1,2,,,,,,,2,0,2,2,,,,,,,,,,,2397.736,2398.2367,2398.4861,2400.9028,space,2.4061,,2400.9029,81,16,2401.9024,2401.9024,2401.9194,,,,0,45,45,45,1,105,40,,,,,,,,
,,6159f4cfb6b9db3c322e8b66,65af554cb73447736efa8ab8,2024-01-23_07h59.01.722,bars,2023.2.3,Win32,61.34969325,657b66ea316d21385b68909f,,,,,,,,,,,2401.9196,2402.9197,,,2403.4196,2403.6695,,33,33,,,,,,,,,,,,,,,,bars/027.png,bars/mask004.png,,,,,,,,,,,,0,2,,,,,,,4,0,5,0,,,,,,,,,,,2402.9197,2403.4195,2403.6696,2406.0195,space,2.3386,,2406.0196,77,17,2407.0194,2407.0194,2407.0444,,,,0,46,46,46,1,110,50,,,,,,,,
,,6159f4cfb6b9db3c322e8b66,65af554cb73447736efa8ab8,2024-01-23_07h59.01.722,bars,2023.2.3,Win32,61.34969325,657b66ea316d21385b68909f,,,,,,,,,,,2407.0446,2408.036,,,2408.5357,2408.7861,,1,181,,,,,,,,,,,,,,,,bars/022.png,bars/mask007.png,,,,,,,,,,,,1,2,,,,,,,2,2,3,3,,,,,,,,,,,2408.0361,2408.5357,2408.7861,2411.3182,space,2.5261,,2411.3182,86,19,2412.3181,2412.3182,2412.3245,,,,0,47,47,47,1,95,20,,,,,,,,
,,6159f4cfb6b9db3c322e8b66,65af554cb73447736efa8ab8,2024-01-23_07h59.01.722,bars,2023.2.3,Win32,61.34969325,657b66ea316d21385b68909f,,,,,,,,,,,2412.3246,2413.3229,,,2413.8182,2414.0683,,169,169,,,,,,,,,,,,,,,,bars/025.png,bars/mask002.png,,,,,,,,,,,,0,2,,,,,,,0,4,0,3,,,,,,,,,,,2413.3229,2413.8182,2414.0683,2433.0504,space,18.9661,,2433.0504,64,51,2434.0506,2434.0507,2434.0624,,,,0,48,48,48,1,105,40,,,,,,,,
,,6159f4cfb6b9db3c322e8b66,65af554cb73447736efa8ab8,2024-01-23_07h59.01.722,bars,2023.2.3,Win32,61.34969325,657b66ea316d21385b68909f,,,,,,,,,,,2434.0626,2435.0505,,,2435.5506,2435.8003,,137,137,,,,,,,,,,,,,,,,bars/039.png,bars/mask006.png,,,,,,,,,,,,0,2,,,,,,,0,2,1,2,,,,,,,,,,,2435.0506,2435.5506,2435.8003,2437.8839,space,2.0778,,2437.884,38,32,2438.8837,2438.8837,2438.8988,,,,0,49,49,49,1,175,105,,,,,,,,
,,6159f4cfb6b9db3c322e8b66,65af554cb73447736efa8ab8,2024-01-23_07h59.01.722,bars,2023.2.3,Win32,61.34969325,657b66ea316d21385b68909f,,,,,,,,,,,,,,,,,,,,,,,,,,,,,,,,,,,,,,,,,,,,,,,,,,,,,,,,,,,,,,,,,,,,,,,,,,,,,,,,,,,,,,,,,,,,,2438.8988,2498.8976,0,2,2,1,1,sequence_tables/blk039.csv
,,6159f4cfb6b9db3c322e8b66,65af554cb73447736efa8ab8,2024-01-23_07h59.01.722,bars,2023.2.3,Win32,61.34969325,657b66ea316d21385b68909f,,,,,,,,,,,2500.7673,2501.7635,,,2502.2638,2502.5136,,112,112,,,,,,,,,,,,,,,,bars/019.png,bars/mask001.png,,,,,,,,,,,,5,2,,,,,,,7,6,8,7,,,,,,2498.9199,2500.7631,space,1.8322,,2501.7635,2502.2638,2502.5136,2504.6463,space,2.124,,2504.6464,67,7,2505.6468,2505.6469,2505.6693,,,,0,0,0,0,1,45,105,,,,,,,,
,,6159f4cfb6b9db3c322e8b66,65af554cb73447736efa8ab8,2024-01-23_07h59.01.722,bars,2023.2.3,Win32,61.34969325,657b66ea316d21385b68909f,,,,,,,,,,,2505.6696,2506.6629,,,2507.1634,2507.4133,,133,133,,,,,,,,,,,,,,,,bars/023.png,bars/mask009.png,,,,,,,,,,,,1,2,,,,,,,5,4,7,3,,,,,,,,,,,2506.663,2507.1633,2507.4134,2509.8631,space,2.4367,,2509.8632,67,18,2510.8629,2510.8629,2510.864,,,,0,1,1,1,1,20,115,,,,,,,,
,,6159f4cfb6b9db3c322e8b66,65af554cb73447736efa8ab8,2024-01-23_07h59.01.722,bars,2023.2.3,Win32,61.34969325,657b66ea316d21385b68909f,,,,,,,,,,,2510.8644,2511.8632,,,2512.3632,2512.6128,,64,64,,,,,,,,,,,,,,,,bars/021.png,bars/mask000.png,,,,,,,,,,,,2,2,,,,,,,3,2,2,2,,,,,,,,,,,2511.8632,2512.3632,2512.6129,2514.7621,space,2.1275,,2514.7621,89,6,2515.7629,2515.7629,2515.7889,,,,0,2,2,2,1,155,70,,,,,,,,
,,6159f4cfb6b9db3c322e8b66,65af554cb73447736efa8ab8,2024-01-23_07h59.01.722,bars,2023.2.3,Win32,61.34969325,657b66ea316d21385b68909f,,,,,,,,,,,2515.7892,2516.7791,,,2517.2794,2517.5296,,128,128,,,,,,,,,,,,,,,,bars/044.png,bars/mask009.png,,,,,,,,,,,,0,2,,,,,,,1,0,0,0,,,,,,,,,,,2516.7791,2517.2794,2517.5296,2519.9832,space,2.4474,,2519.9833,53,27,2520.9788,2520.9788,2520.9943,,,,0,3,3,3,1,75,155,,,,,,,,
,,6159f4cfb6b9db3c322e8b66,65af554cb73447736efa8ab8,2024-01-23_07h59.01.722,bars,2023.2.3,Win32,61.34969325,657b66ea316d21385b68909f,,,,,,,,,,,2520.9945,2521.9958,,,2522.4959,2522.7458,,73,73,,,,,,,,,,,,,,,,bars/046.png,bars/mask000.png,,,,,,,,,,,,0,2,,,,,,,3,0,4,0,,,,,,,,,,,2521.9958,2522.4959,2522.7458,2525.8122,space,3.0509,,2525.8123,82,12,2526.8121,2526.8122,2526.8409,,,,0,4,4,4,1,155,85,,,,,,,,
,,6159f4cfb6b9db3c322e8b66,65af554cb73447736efa8ab8,2024-01-23_07h59.01.722,bars,2023.2.3,Win32,61.34969325,657b66ea316d21385b68909f,,,,,,,,,,,2526.8414,2527.8457,,,2528.3458,2528.5953,,36,216,,,,,,,,,,,,,,,,bars/036.png,bars/mask006.png,,,,,,,,,,,,0,2,,,,,,,1,2,2,1,,,,,,,,,,,2527.8458,2528.3457,2528.5953,2532.2122,space,3.6003,,2532.2123,71,16,2533.2121,2533.2121,2533.2341,,,,0,5,5,5,1,145,20,,,,,,,,
,,6159f4cfb6b9db3c322e8b66,65af554cb73447736efa8ab8,2024-01-23_07h59.01.722,bars,2023.2.3,Win32,61.34969325,657b66ea316d21385b68909f,,,,,,,,,,,2533.2343,2534.2284,,,2534.7284,2534.9784,,49,49,,,,,,,,,,,,,,,,bars/038.png,bars/mask008.png,,,,,,,,,,,,2,2,,,,,,,0,4,0,5,,,,,,,,,,,2534.2285,2534.7283,2534.9785,2537.6943,space,2.6964,,2537.6943,64,21,2538.6944,2538.6945,2538.7089,,,,0,6,6,6,1,165,70,,,,,,,,
,,6159f4cfb6b9db3c322e8b66,65af554cb73447736efa8ab8,2024-01-23_07h59.01.722,bars,2023.2.3,Win32,61.34969325,657b66ea316d21385b68909f,,,,,,,,,,,2538.7091,2539.7114,,,2540.2111,2540.4616,,88,88,,,,,,,,,,,,,,,,bars/041.png,bars/mask006.png,,,,,,,,,,,,5,2,,,,,,,2,6,1,5,,,,,,,,,,,2539.7115,2540.2111,2540.4617,2542.1108,space,1.6346,,2542.1108,68,3,2543.111,2543.111,2543.133,,,,0,7,7,7,1,20,85,,,,,,,,
,,6159f4cfb6b9db3c322e8b66,65af554cb73447736efa8ab8,2024-01-23_07h59.01.722,bars,2023.2.3,Win32,61.34969325,657b66ea316d21385b68909f,,,,,,,,,,,2543.1332,2544.1273,,,2544.6273,2544.8779,,90,90,,,,,,,,,,,,,,,,bars/041.png,bars/mask006.png,,,,,,,,,,,,2,2,,,,,,,4,4,3,2,,,,,,,,,,,2544.1273,2544.6272,2544.878,2547.511,space,2.6173,,2547.5111,70,5,2548.5104,2548.5105,2548.5272,,,,0,8,8,8,1,20,85,,,,,,,,
,,6159f4cfb6b9db3c322e8b66,65af554cb73447736efa8ab8,2024-01-23_07h59.01.722,bars,2023.2.3,Win32,61.34969325,657b66ea316d21385b68909f,,,,,,,,,,,2548.5275,2549.5276,,,2550.0275,2550.2768,,120,120,,,,,,,,,,,,,,,,bars/043.png,bars/mask006.png,,,,,,,,,,,,1,2,,,,,,,2,2,2,1,,,,,,,,,,,2549.5277,2550.0275,2550.2768,2551.4271,space,1.1444,,2551.4272,90,10,2552.4269,2552.427,2552.4282,,,,0,9,9,9,1,30,130,,,,,,,,
,,6159f4cfb6b9db3c322e8b66,65af554cb73447736efa8ab8,2024-01-23_07h59.01.722,bars,2023.2.3,Win32,61.34969325,657b66ea316d21385b68909f,,,,,,,,,,,2552.4285,2553.4272,,,2553.9275,2554.1768,,141,141,,,,,,,,,,,,,,,,bars/006.png,bars/mask006.png,,,,,,,,,,,,0,2,,,,,,,0,4,0,3,,,,,,,,,,,2553.4273,2553.9275,2554.1768,2556.3931,space,2.2099,,2556.3931,74,41,2557.3928,2557.3929,2557.3994,,,,0,10,10,10,1,35,100,,,,,,,,
,,6159f4cfb6b9db3c322e8b66,65af554cb73447736efa8ab8,2024-01-23_07h59.01.722,bars,2023.2.3,Win32,61.34969325,657b66ea316d21385b68909f,,,,,,,,,,,2557.3994,2558.3932,,,2558.8937,2559.1432,,148,148,,,,,,,,,,,,,,,,bars/049.png,bars/mask004.png,,,,,,,,,,,,1,1,,,,,,,0,6,1,6,,,,,,,,,,,2558.3933,2558.8937,2559.1432,2561.0102,space,1.8584,,2561.0103,12,33,2562.0102,2562.0103,2562.0338,,,,0,11,11,11,1,160,115,,,,,,,,
,,6159f4cfb6b9db3c322e8b66,65af554cb73447736efa8ab8,2024-01-23_07h59.01.722,bars,2023.2.3,Win32,61.34969325,657b66ea316d21385b68909f,,,,,,,,,,,2562.034,2563.0269,,,2563.527,2563.7767,,148,148,,,,,,,,,,,,,,,,bars/016.png,bars/mask009.png,,,,,,,,,,,,1,2,,,,,,,0,4,2,3,,,,,,,,,,,2563.0269,2563.5269,2563.7767,2568.6257,space,4.8349,,2568.6257,72,17,2569.6261,2569.6261,2569.6437,,,,0,12,12,12,1,40,165,,,,,,,,
,,6159f4cfb6b9db3c322e8b66,65af554cb73447736efa8ab8,2024-01-23_07h59.01.722,bars,2023.2.3,Win32,61.34969325,657b66ea316d21385b68909f,,,,,,,,,,,2569.6441,2570.6426,,,2571.1425,2571.3926,,96,96,,,,,,,,,,,,,,,,bars/018.png,bars/mask009.png,,,,,,,,,,,,4,2,,,,,,,0,6,0,5,,,,,,,,,,,2570.6426,2571.1425,2571.3926,2573.526,space,2.1197,,2573.526,54,6,2574.5258,2574.5259,2574.5272,,,,0,13,13,13,1,150,90,,,,,,,,
,,6159f4cfb6b9db3c322e8b66,65af554cb73447736efa8ab8,2024-01-23_07h59.01.722,bars,2023.2.3,Win32,61.34969325,657b66ea316d21385b68909f,,,,,,,,,,,2574.528,2575.5257,,,2576.0261,2576.2761,,1,1,,,,,,,,,,,,,,,,bars/048.png,bars/mask007.png,,,,,,,,,,,,6,2,,,,,,,2,8,1,8,,,,,,,,,,,2575.5258,2576.0259,2576.2761,2579.9918,space,3.6978,,2579.9918,49,6,2580.9924,2580.9924,2581.014,,,,0,14,14,14,1,50,175,,,,,,,,
,,6159f4cfb6b9db3c322e8b66,65af554cb73447736efa8ab8,2024-01-23_07h59.01.722,bars,2023.2.3,Win32,61.34969325,657b66ea316d21385b68909f,,,,,,,,,,,2581.0143,2582.0089,,,2582.5092,2582.7587,,157,157,,,,,,,,,,,,,,,,bars/003.png,bars/mask000.png,,,,,,,,,,,,2,2,,,,,,,0,6,1,5,,,,,,,,,,,2582.009,2582.5092,2582.7588,2584.5919,space,1.818,,2584.592,48,17,2585.5919,2585.592,2585.6159,,,,0,15,15,15,1,25,140,,,,,,,,
,,6159f4cfb6b9db3c322e8b66,65af554cb73447736efa8ab8,2024-01-23_07h59.01.722,bars,2023.2.3,Win32,61.34969325,657b66ea316d21385b68909f,,,,,,,,,,,2585.6162,2586.6086,,,2587.1085,2587.3585,,82,82,,,,,,,,,,,,,,,,bars/028.png,bars/mask003.png,,,,,,,,,,,,0,1,,,,,,,0,8,1,9,,,,,,,,,,,2586.6086,2587.1085,2587.3585,2589.3917,space,2.0176,,2589.3918,37,38,2590.3911,2590.3911,2590.3928,,,,0,16,16,16,1,45,120,,,,,,,,
,,6159f4cfb6b9db3c322e8b66,65af554cb73447736efa8ab8,2024-01-23_07h59.01.722,bars,2023.2.3,Win32,61.34969325,657b66ea316d21385b68909f,,,,,,,,,,,2590.3931,2591.3917,,,2591.8919,2592.1417,,116,116,,,,,,,,,,,,,,,,bars/028.png,bars/mask006.png,,,,,,,,,,,,9,2,,,,,,,2,10,1,10,,,,,,,,,,,2591.3918,2591.8918,2592.1417,2594.2418,space,2.0844,,2594.2418,71,4,2595.2416,2595.2416,2595.2631,,,,0,17,17,17,1,45,120,,,,,,,,
,,6159f4cfb6b9db3c322e8b66,65af554cb73447736efa8ab8,2024-01-23_07h59.01.722,bars,2023.2.3,Win32,61.34969325,657b66ea316d21385b68909f,,,,,,,,,,,2595.2634,2596.2582,,,2596.758,2597.0077,,35,35,,,,,,,,,,,,,,,,bars/014.png,bars/mask006.png,,,,,,,,,,,,0,2,,,,,,,4,10,2,9,,,,,,,,,,,2596.2583,2596.758,2597.0077,2599.9247,space,2.8894,,2599.9247,45,35,2600.9244,2600.9245,2600.9482,,,,0,18,18,18,1,80,0,,,,,,,,
,,6159f4cfb6b9db3c322e8b66,65af554cb73447736efa8ab8,2024-01-23_07h59.01.722,bars,2023.2.3,Win32,61.34969325,657b66ea316d21385b68909f,,,,,,,,,,,2600.9484,2601.9403,,,2602.4406,2602.6912,,65,65,,,,,,,,,,,,,,,,bars/038.png,bars/mask007.png,,,,,,,,,,,,8,2,,,,,,,2,10,3,10,,,,,,,,,,,2601.9403,2602.4406,2602.6912,2606.1076,space,3.3882,,2606.1077,80,5,2607.1074,2607.1074,2607.1306,,,,0,19,19,19,1,165,70,,,,,,,,
,,6159f4cfb6b9db3c322e8b66,65af554cb73447736efa8ab8,2024-01-23_07h59.01.722,bars,2023.2.3,Win32,61.34969325,657b66ea316d21385b68909f,,,,,,,,,,,2607.1309,2608.1241,,,2608.6234,2608.8738,,154,154,,,,,,,,,,,,,,,,bars/025.png,bars/mask008.png,,,,,,,,,,,,0,1,,,,,,,0,8,0,8,,,,,,,,,,,2608.1242,2608.6234,2608.8738,2610.8239,space,1.9229,,2610.824,49,66,2611.8238,2611.8238,2611.8487,,,,0,20,20,20,1,105,40,,,,,,,,
,,6159f4cfb6b9db3c322e8b66,65af554cb73447736efa8ab8,2024-01-23_07h59.01.722,bars,2023.2.3,Win32,61.34969325,657b66ea316d21385b68909f,,,,,,,,,,,2611.849,2612.8397,,,2613.3405,2613.59,,39,39,,,,,,,,,,,,,,,,bars/034.png,bars/mask004.png,,,,,,,,,,,,1,2,,,,,,,0,10,3,10,,,,,,,,,,,2612.8397,2613.3404,2613.5901,2615.6899,space,2.0681,,2615.69,86,26,2616.6901,2616.6902,2616.6938,,,,0,21,21,21,1,125,65,,,,,,,,
,,6159f4cfb6b9db3c322e8b66,65af554cb73447736efa8ab8,2024-01-23_07h59.01.722,bars,2023.2.3,Win32,61.34969325,657b66ea316d21385b68909f,,,,,,,,,,,2616.6943,2617.6899,,,2618.1904,2618.44,,58,58,,,,,,,,,,,,,,,,bars/001.png,bars/mask003.png,,,,,,,,,,,,1,2,,,,,,,2,10,3,9,,,,,,,,,,,2617.6899,2618.1903,2618.44,2620.3066,space,1.856,,2620.3067,72,27,2621.3067,2621.3068,2621.331,,,,0,22,22,22,1,130,85,,,,,,,,
,,6159f4cfb6b9db3c322e8b66,65af554cb73447736efa8ab8,2024-01-23_07h59.01.722,bars,2023.2.3,Win32,61.34969325,657b66ea316d21385b68909f,,,,,,,,,,,2621.3312,2622.3233,,,2622.823,2623.0723,,94,94,,,,,,,,,,,,,,,,bars/011.png,bars/mask009.png,,,,,,,,,,,,6,2,,,,,,,0,8,0,8,,,,,,,,,,,2622.3233,2622.823,2623.0724,2625.2226,space,2.118,,2625.2226,66,9,2626.223,2626.2231,2626.2437,,,,0,23,23,23,1,160,85,,,,,,,,
,,6159f4cfb6b9db3c322e8b66,65af554cb73447736efa8ab8,2024-01-23_07h59.01.722,bars,2023.2.3,Win32,61.34969325,657b66ea316d21385b68909f,,,,,,,,,,,2626.2439,2627.2394,,,2627.739,2627.9889,,20,20,,,,,,,,,,,,,,,,bars/022.png,bars/mask007.png,,,,,,,,,,,,10,2,,,,,,,2,10,1,10,,,,,,,,,,,2627.2395,2627.739,2627.989,2633.4393,space,5.4356,,2633.4394,75,0,2634.4393,2634.4393,2634.4615,,,,0,24,24,24,1,95,20,,,,,,,,
,,6159f4cfb6b9db3c322e8b66,65af554cb73447736efa8ab8,2024-01-23_07h59.01.722,bars,2023.2.3,Win32,61.34969325,657b66ea316d21385b68909f,,,,,,,,,,,2634.4619,2635.4561,,,2635.9553,2636.2054,,32,32,,,,,,,,,,,,,,,,bars/017.png,bars/mask004.png,,,,,,,,,,,,5,2,,,,,,,4,8,3,8,,,,,,,,,,,2635.4561,2635.9553,2636.2054,2639.4056,space,3.1852,,2639.4057,67,13,2640.4055,2640.4055,2640.4266,,,,0,25,25,25,1,145,45,,,,,,,,
,,6159f4cfb6b9db3c322e8b66,65af554cb73447736efa8ab8,2024-01-23_07h59.01.722,bars,2023.2.3,Win32,61.34969325,657b66ea316d21385b68909f,,,,,,,,,,,2640.4268,2641.422,,,2641.9214,2642.1721,,138,138,,,,,,,,,,,,,,,,bars/037.png,bars/mask000.png,,,,,,,,,,,,4,1,,,,,,,6,10,6,9,,,,,,,,,,,2641.4221,2641.9214,2642.1721,2644.555,space,2.3522,,2644.555,12,33,2645.5543,2645.5544,2645.5621,,,,0,26,26,26,1,150,105,,,,,,,,
,,6159f4cfb6b9db3c322e8b66,65af554cb73447736efa8ab8,2024-01-23_07h59.01.722,bars,2023.2.3,Win32,61.34969325,657b66ea316d21385b68909f,,,,,,,,,,,2645.5622,2646.5551,,,2647.0554,2647.31,,95,95,,,,,,,,,,,,,,,,bars/021.png,bars/mask008.png,,,,,,,,,,,,2,2,,,,,,,4,10,5,10,,,,,,,,,,,2646.5551,2647.0553,2647.3101,2648.8046,space,1.4671,,2648.8046,60,25,2649.8049,2649.805,2649.8298,,,,0,27,27,27,1,155,70,,,,,,,,
,,6159f4cfb6b9db3c322e8b66,65af554cb73447736efa8ab8,2024-01-23_07h59.01.722,bars,2023.2.3,Win32,61.34969325,657b66ea316d21385b68909f,,,,,,,,,,,2649.8301,2650.821,,,2651.3214,2651.571,,131,131,,,,,,,,,,,,,,,,bars/044.png,bars/mask003.png,,,,,,,,,,,,2,2,,,,,,,6,10,7,10,,,,,,,,,,,2650.821,2651.3213,2651.5711,2653.4882,space,1.9075,,2653.4883,56,24,2654.4875,2654.4876,2654.4886,,,,0,28,28,28,1,75,155,,,,,,,,
,,6159f4cfb6b9db3c322e8b66,65af554cb73447736efa8ab8,2024-01-23_07h59.01.722,bars,2023.2.3,Win32,61.34969325,657b66ea316d21385b68909f,,,,,,,,,,,2654.4889,2655.488,,,2655.9875,2656.2379,,25,25,,,,,,,,,,,,,,,,bars/036.png,bars/mask007.png,,,,,,,,,,,,8,2,,,,,,,4,10,4,9,,,,,,,,,,,2655.4881,2655.9875,2656.238,2658.6707,space,2.4175,,2658.6707,60,5,2659.6709,2659.6709,2659.6957,,,,0,29,29,29,1,145,20,,,,,,,,
,,6159f4cfb6b9db3c322e8b66,65af554cb73447736efa8ab8,2024-01-23_07h59.01.722,bars,2023.2.3,Win32,61.34969325,657b66ea316d21385b68909f,,,,,,,,,,,2659.696,2660.6872,,,2661.176,2661.421,,44,44,,,,,,,,,,,,,,,,bars/034.png,bars/mask008.png,,,,,,,,,,,,2,2,,,,,,,6,8,6,8,,,,,,,,,,,2660.6872,2661.176,2661.421,2662.9877,space,1.551,,2662.9877,81,21,2663.9876,2663.9876,2663.9892,,,,0,30,30,30,1,125,65,,,,,,,,
,,6159f4cfb6b9db3c322e8b66,65af554cb73447736efa8ab8,2024-01-23_07h59.01.722,bars,2023.2.3,Win32,61.34969325,657b66ea316d21385b68909f,,,,,,,,,,,2663.9899,2664.9924,,,2665.4874,2665.7255,,138,138,,,,,,,,,,,,,,,,bars/049.png,bars/mask003.png,,,,,,,,,,,,1,1,,,,,,,4,6,5,6,,,,,,,,,,,2664.9924,2665.4873,2665.7255,2667.1534,space,1.4123,,2667.1534,22,23,2668.1536,2668.1536,2668.1571,,,,0,31,31,31,1,160,115,,,,,,,,
,,6159f4cfb6b9db3c322e8b66,65af554cb73447736efa8ab8,2024-01-23_07h59.01.722,bars,2023.2.3,Win32,61.34969325,657b66ea316d21385b68909f,,,,,,,,,,,2668.1576,2669.1537,,,2669.6537,2669.9037,,40,40,,,,,,,,,,,,,,,,bars/031.png,bars/mask008.png,,,,,,,,,,,,5,2,,,,,,,2,8,1,6,,,,,,,,,,,2669.1538,2669.6536,2669.9037,2670.9539,space,1.0342,,2670.954,80,5,2671.9535,2671.9536,2671.9567,,,,0,32,32,32,1,120,35,,,,,,,,
,,6159f4cfb6b9db3c322e8b66,65af554cb73447736efa8ab8,2024-01-23_07h59.01.722,bars,2023.2.3,Win32,61.34969325,657b66ea316d21385b68909f,,,,,,,,,,,2671.9573,2672.9533,,,2673.4535,2673.6919,,77,77,,,,,,,,,,,,,,,,bars/023.png,bars/mask005.png,,,,,,,,,,,,0,2,,,,,,,0,6,0,6,,,,,,,,,,,2672.9533,2673.4534,2673.692,2674.886,space,1.1728,,2674.8861,57,38,2675.8867,2675.8868,2675.888,,,,0,33,33,33,1,20,115,,,,,,,,
,,6159f4cfb6b9db3c322e8b66,65af554cb73447736efa8ab8,2024-01-23_07h59.01.722,bars,2023.2.3,Win32,61.34969325,657b66ea316d21385b68909f,,,,,,,,,,,2675.8887,2676.8862,,,2677.3861,2677.6357,,30,30,,,,,,,,,,,,,,,,bars/029.png,bars/mask001.png,,,,,,,,,,,,5,2,,,,,,,2,8,3,9,,,,,,,,,,,2676.8862,2677.386,2677.6357,2680.003,space,2.3587,,2680.0031,60,15,2681.003,2681.003,2681.0041,,,,0,34,34,34,1,90,45,,,,,,,,
,,6159f4cfb6b9db3c322e8b66,65af554cb73447736efa8ab8,2024-01-23_07h59.01.722,bars,2023.2.3,Win32,61.34969325,657b66ea316d21385b68909f,,,,,,,,,,,2681.0046,2682.003,,,2682.5028,2682.7434,,25,25,,,,,,,,,,,,,,,,bars/010.png,bars/mask008.png,,,,,,,,,,,,0,2,,,,,,,0,10,0,9,,,,,,,,,,,2682.003,2682.5027,2682.7435,2684.5029,space,1.7347,,2684.503,40,30,2685.5026,2685.5026,2685.5232,,,,0,35,35,35,1,165,55,,,,,,,,
,,6159f4cfb6b9db3c322e8b66,65af554cb73447736efa8ab8,2024-01-23_07h59.01.722,bars,2023.2.3,Win32,61.34969325,657b66ea316d21385b68909f,,,,,,,,,,,2685.5235,2686.5195,,,2687.0194,2687.269,,118,118,,,,,,,,,,,,,,,,bars/000.png,bars/mask006.png,,,,,,,,,,,,1,2,,,,,,,0,8,0,9,,,,,,,,,,,2686.5195,2687.0194,2687.269,2691.0198,space,3.7453,,2691.0198,78,27,2692.0188,2692.0189,2692.0379,,,,0,36,36,36,1,40,145,,,,,,,,
,,6159f4cfb6b9db3c322e8b66,65af554cb73447736efa8ab8,2024-01-23_07h59.01.722,bars,2023.2.3,Win32,61.34969325,657b66ea316d21385b68909f,,,,,,,,,,,2692.0381,2693.0358,,,2693.5353,2693.7857,,60,60,,,,,,,,,,,,,,,,bars/011.png,bars/mask005.png,,,,,,,,,,,,1,2,,,,,,,2,6,3,6,,,,,,,,,,,2693.0359,2693.5353,2693.7858,2696.7181,space,2.9233,,2696.7181,80,25,2697.7181,2697.7181,2697.7263,,,,0,37,37,37,1,160,85,,,,,,,,
,,6159f4cfb6b9db3c322e8b66,65af554cb73447736efa8ab8,2024-01-23_07h59.01.722,bars,2023.2.3,Win32,61.34969325,657b66ea316d21385b68909f,,,,,,,,,,,2697.7264,2698.7187,,,2699.2186,2699.4687,,174,174,,,,,,,,,,,,,,,,bars/040.png,bars/mask004.png,,,,,,,,,,,,4,2,,,,,,,4,8,4,7,,,,,,,,,,,2698.7188,2699.2186,2699.4688,2700.8684,space,1.3687,,2700.8684,34,11,2701.8685,2701.8685,2701.87,,,,0,38,38,38,1,140,5,,,,,,,,
,,6159f4cfb6b9db3c322e8b66,65af554cb73447736efa8ab8,2024-01-23_07h59.01.722,bars,2023.2.3,Win32,61.34969325,657b66ea316d21385b68909f,,,,,,,,,,,2701.8706,2702.8683,,,2703.3686,2703.6185,,142,142,,,,,,,,,,,,,,,,bars/004.png,bars/mask005.png,,,,,,,,,,,,3,2,,,,,,,2,6,1,6,,,,,,,,,,,2702.8683,2703.3685,2703.6185,2707.9683,space,4.3201,,2707.9684,63,17,2708.9681,2708.9681,2708.9893,,,,0,39,39,39,1,25,125,,,,,,,,
,,6159f4cfb6b9db3c322e8b66,65af554cb73447736efa8ab8,2024-01-23_07h59.01.722,bars,2023.2.3,Win32,61.34969325,657b66ea316d21385b68909f,,,,,,,,,,,2708.9895,2709.9846,,,2710.4841,2710.7341,,137,137,,,,,,,,,,,,,,,,bars/023.png,bars/mask006.png,,,,,,,,,,,,1,2,,,,,,,0,4,0,3,,,,,,,,,,,2709.9847,2710.4841,2710.7342,2712.8841,space,2.1335,,2712.8841,63,22,2713.8845,2713.8845,2713.9066,,,,0,40,40,40,1,20,115,,,,,,,,
,,6159f4cfb6b9db3c322e8b66,65af554cb73447736efa8ab8,2024-01-23_07h59.01.722,bars,2023.2.3,Win32,61.34969325,657b66ea316d21385b68909f,,,,,,,,,,,2713.9069,2714.9055,,,2715.4005,2715.6505,,101,101,,,,,,,,,,,,,,,,bars/011.png,bars/mask000.png,,,,,,,,,,,,2,2,,,,,,,2,6,1,5,,,,,,,,,,,2714.9055,2715.4005,2715.6505,2717.1886,space,1.5167,,2717.1887,59,16,2718.1842,2718.1843,2718.1858,,,,0,41,41,41,1,160,85,,,,,,,,
,,6159f4cfb6b9db3c322e8b66,65af554cb73447736efa8ab8,2024-01-23_07h59.01.722,bars,2023.2.3,Win32,61.34969325,657b66ea316d21385b68909f,,,,,,,,,,,2718.1865,2719.1839,,,2719.6837,2719.9342,,142,142,,,,,,,,,,,,,,,,bars/003.png,bars/mask008.png,,,,,,,,,,,,7,2,,,,,,,4,8,4,7,,,,,,,,,,,2719.1839,2719.6837,2719.9343,2722.0503,space,2.1095,,2722.0504,63,2,2723.0499,2723.0499,2723.0506,,,,0,42,42,42,1,25,140,,,,,,,,
,,6159f4cfb6b9db3c322e8b66,65af554cb73447736efa8ab8,2024-01-23_07h59.01.722,bars,2023.2.3,Win32,61.34969325,657b66ea316d21385b68909f,,,,,,,,,,,2723.0508,2724.0504,,,2724.5507,2724.8003,,116,116,,,,,,,,,,,,,,,,bars/006.png,bars/mask001.png,,,,,,,,,,,,2,2,,,,,,,2,6,3,5,,,,,,,,,,,2724.0505,2724.5507,2724.8004,2727.2164,space,2.4093,,2727.2164,81,16,2728.2171,2728.2171,2728.2356,,,,0,43,43,43,1,35,100,,,,,,,,
,,6159f4cfb6b9db3c322e8b66,65af554cb73447736efa8ab8,2024-01-23_07h59.01.722,bars,2023.2.3,Win32,61.34969325,657b66ea316d21385b68909f,,,,,,,,,,,2728.2358,2729.2336,,,2729.7333,2729.9833,,166,-14,,,,,,,,,,,,,,,,bars/044.png,bars/mask000.png,,,,,,,,,,,,6,2,,,,,,,4,8,6,9,,,,,,,,,,,2729.2337,2729.7332,2729.9833,2732.466,space,2.4693,,2732.466,89,11,2733.466,2733.466,2733.4751,,,,0,44,44,44,1,75,155,,,,,,,,
,,6159f4cfb6b9db3c322e8b66,65af554cb73447736efa8ab8,2024-01-23_07h59.01.722,bars,2023.2.3,Win32,61.34969325,657b66ea316d21385b68909f,,,,,,,,,,,2733.4752,2734.466,,,2734.9667,2735.2164,,61,61,,,,,,,,,,,,,,,,bars/021.png,bars/mask006.png,,,,,,,,,,,,4,2,,,,,,,2,6,1,6,,,,,,,,,,,2734.466,2734.9666,2735.2164,2738.7332,space,3.5063,,2738.7332,86,9,2739.7327,2739.7328,2739.7559,,,,0,45,45,45,1,155,70,,,,,,,,
,,6159f4cfb6b9db3c322e8b66,65af554cb73447736efa8ab8,2024-01-23_07h59.01.722,bars,2023.2.3,Win32,61.34969325,657b66ea316d21385b68909f,,,,,,,,,,,2739.7561,2740.7496,,,2741.2495,2741.4992,,122,122,,,,,,,,,,,,,,,,bars/026.png,bars/mask002.png,,,,,,,,,,,,0,2,,,,,,,4,8,4,7,,,,,,,,,,,2740.7496,2741.2495,2741.4992,2744.5153,space,3.0053,,2744.5153,87,37,2745.5159,2745.516,2745.535,,,,0,46,46,46,1,35,85,,,,,,,,
,,6159f4cfb6b9db3c322e8b66,65af554cb73447736efa8ab8,2024-01-23_07h59.01.722,bars,2023.2.3,Win32,61.34969325,657b66ea316d21385b68909f,,,,,,,,,,,2745.5353,2746.5321,,,2747.0327,2747.287,,80,80,,,,,,,,,,,,,,,,bars/011.png,bars/mask006.png,,,,,,,,,,,,4,2,,,,,,,6,6,7,5,,,,,,,,,,,2746.5321,2747.0326,2747.287,2750.2033,space,2.912,,2750.2033,80,5,2751.199,2751.199,2751.2191,,,,0,47,47,47,1,160,85,,,,,,,,
,,6159f4cfb6b9db3c322e8b66,65af554cb73447736efa8ab8,2024-01-23_07h59.01.722,bars,2023.2.3,Win32,61.34969325,657b66ea316d21385b68909f,,,,,,,,,,,2751.2193,2752.2155,,,2752.7153,2752.9651,,68,68,,,,,,,,,,,,,,,,bars/009.png,bars/mask006.png,,,,,,,,,,,,0,2,,,,,,,8,8,7,10,,,,,,,,,,,2752.2156,2752.7152,2752.9651,2754.7313,space,1.7329,,2754.7314,53,37,2755.7317,2755.7318,2755.7546,,,,0,48,48,48,1,15,105,,,,,,,,
,,6159f4cfb6b9db3c322e8b66,65af554cb73447736efa8ab8,2024-01-23_07h59.01.722,bars,2023.2.3,Win32,61.34969325,657b66ea316d21385b68909f,,,,,,,,,,,2755.7549,2756.7487,,,2757.2487,2757.5016,,49,49,,,,,,,,,,,,,,,,bars/022.png,bars/mask006.png,,,,,,,,,,,,0,2,,,,,,,10,6,10,6,,,,,,,,,,,2756.7487,2757.2486,2757.5017,2759.7977,space,2.2674,,2759.7977,46,29,2760.7983,2760.7984,2760.8205,,,,0,49,49,49,1,95,20,,,,,,,,
,,6159f4cfb6b9db3c322e8b66,65af554cb73447736efa8ab8,2024-01-23_07h59.01.722,bars,2023.2.3,Win32,61.34969325,657b66ea316d21385b68909f,,,,,,,,,,,,,,,,,,,,,,,,,,,,,,,,,,,,,,,,,,,,,,,,,,,,,,,,,,,,,,,,,,,,,,,,,,,,,,,,,,,,,,,,,,,,,2760.8206,2820.8116,0,3,3,2,1,sequence_tables/blk049.csv
,,6159f4cfb6b9db3c322e8b66,65af554cb73447736efa8ab8,2024-01-23_07h59.01.722,bars,2023.2.3,Win32,61.34969325,657b66ea316d21385b68909f,,,,,,,,,,,2830.1736,2831.1603,,,2831.6601,2831.9103,,60,60,,,,,,,,,,,,,,,,bars/002.png,bars/mask000.png,,,,,,,,,,,,0,2,,,,,,,10,1,8,0,,,,,,2820.833,2830.1442,space,9.2961,,2831.1604,2831.6601,2831.9104,2833.7271,space,1.8026,,2833.7273,70,25,2834.7269,2834.727,2834.7276,,,,0,0,0,0,1,130,85,,,,,,,,
,,6159f4cfb6b9db3c322e8b66,65af554cb73447736efa8ab8,2024-01-23_07h59.01.722,bars,2023.2.3,Win32,61.34969325,657b66ea316d21385b68909f,,,,,,,,,,,2834.7278,2835.7275,,,2836.2273,2836.4773,,140,140,,,,,,,,,,,,,,,,bars/024.png,bars/mask000.png,,,,,,,,,,,,3,1,,,,,,,8,0,8,0,,,,,,,,,,,2835.7275,2836.2273,2836.4773,2839.7939,space,3.2989,,2839.794,20,30,2840.7935,2840.7936,2840.8172,,,,0,1,1,1,1,120,170,,,,,,,,
,,6159f4cfb6b9db3c322e8b66,65af554cb73447736efa8ab8,2024-01-23_07h59.01.722,bars,2023.2.3,Win32,61.34969325,657b66ea316d21385b68909f,,,,,,,,,,,2840.8174,2841.8098,,,2842.3099,2842.5603,,105,105,,,,,,,,,,,,,,,,bars/043.png,bars/mask006.png,,,,,,,,,,,,0,2,,,,,,,6,0,5,0,,,,,,,,,,,2841.8098,2842.3099,2842.5603,2844.5096,space,1.9338,,2844.5097,75,25,2845.5098,2845.5099,2845.5249,,,,0,2,2,2,1,30,130,,,,,,,,
,,6159f4cfb6b9db3c322e8b66,65af554cb73447736efa8ab8,2024-01-23_07h59.01.722,bars,2023.2.3,Win32,61.34969325,657b66ea316d21385b68909f,,,,,,,,,,,2845.5251,2846.5261,,,2847.0268,2847.2833,,35,35,,,,,,,,,,,,,,,,bars/031.png,bars/mask003.png,,,,,,,,,,,,0,2,,,,,,,4,2,3,0,,,,,,,,,,,2846.5262,2847.0268,2847.2833,2848.093,space,0.7859,,2848.0931,85,0,2849.093,2849.0932,2849.0946,,,,0,3,3,3,1,120,35,,,,,,,,
,,6159f4cfb6b9db3c322e8b66,65af554cb73447736efa8ab8,2024-01-23_07h59.01.722,bars,2023.2.3,Win32,61.34969325,657b66ea316d21385b68909f,,,,,,,,,,,2849.0952,2850.0932,,,2850.5931,2850.8426,,145,145,,,,,,,,,,,,,,,,bars/024.png,bars/mask000.png,,,,,,,,,,,,0,2,,,,,,,6,0,5,0,,,,,,,,,,,2850.0932,2850.593,2850.8426,2854.1427,space,3.2857,,2854.1428,25,25,2855.1427,2855.1428,2855.1662,,,,0,4,4,4,1,120,170,,,,,,,,
,,6159f4cfb6b9db3c322e8b66,65af554cb73447736efa8ab8,2024-01-23_07h59.01.722,bars,2023.2.3,Win32,61.34969325,657b66ea316d21385b68909f,,,,,,,,,,,2855.1664,2856.1595,,,2856.6591,2856.9087,,153,153,,,,,,,,,,,,,,,,bars/024.png,bars/mask001.png,,,,,,,,,,,,2,2,,,,,,,8,2,10,5,,,,,,,,,,,2856.1595,2856.6591,2856.9087,2858.6424,space,1.7191,,2858.6424,33,17,2859.6417,2859.6417,2859.6479,,,,0,5,5,5,1,120,170,,,,,,,,
,,6159f4cfb6b9db3c322e8b66,65af554cb73447736efa8ab8,2024-01-23_07h59.01.722,bars,2023.2.3,Win32,61.34969325,657b66ea316d21385b68909f,,,,,,,,,,,2859.648,2860.6423,,,2861.1418,2861.3922,,113,113,,,,,,,,,,,,,,,,bars/028.png,bars/mask000.png,,,,,,,,,,,,1,2,,,,,,,10,0,10,1,,,,,,,,,,,2860.6423,2861.1418,2861.3922,2863.758,space,2.3492,,2863.758,68,7,2864.7585,2864.7585,2864.7594,,,,0,6,6,6,1,45,120,,,,,,,,
,,6159f4cfb6b9db3c322e8b66,65af554cb73447736efa8ab8,2024-01-23_07h59.01.722,bars,2023.2.3,Win32,61.34969325,657b66ea316d21385b68909f,,,,,,,,,,,2864.7597,2865.7583,,,2866.2587,2866.5088,,153,153,,,,,,,,,,,,,,,,bars/033.png,bars/mask000.png,,,,,,,,,,,,0,2,,,,,,,10,0,10,0,,,,,,,,,,,2865.7584,2866.2587,2866.5088,2868.1249,space,1.6023,,2868.1249,52,2,2869.1251,2869.1252,2869.1452,,,,0,7,7,7,1,25,155,,,,,,,,
,,6159f4cfb6b9db3c322e8b66,65af554cb73447736efa8ab8,2024-01-23_07h59.01.722,bars,2023.2.3,Win32,61.34969325,657b66ea316d21385b68909f,,,,,,,,,,,2869.1454,2870.142,,,2870.6419,2870.8917,,133,133,,,,,,,,,,,,,,,,bars/044.png,bars/mask002.png,,,,,,,,,,,,0,2,,,,,,,10,0,8,0,,,,,,,,,,,2870.1421,2870.6418,2870.8918,2872.4751,space,1.5677,,2872.4752,58,22,2873.4796,2873.4796,2873.4894,,,,0,8,8,8,1,75,155,,,,,,,,
,,6159f4cfb6b9db3c322e8b66,65af554cb73447736efa8ab8,2024-01-23_07h59.01.722,bars,2023.2.3,Win32,61.34969325,657b66ea316d21385b68909f,,,,,,,,,,,2873.4896,2874.4913,,,2874.9917,2875.2415,,35,35,,,,,,,,,,,,,,,,bars/007.png,bars/mask005.png,,,,,,,,,,,,0,2,,,,,,,8,0,9,0,,,,,,,,,,,2874.4913,2874.9917,2875.2415,2877.6077,space,2.3583,,2877.6077,40,20,2878.6081,2878.6081,2878.6096,,,,0,9,9,9,1,175,55,,,,,,,,
