init_variables.started,init_variables.stopped,participant,session,date,expName,psychopyVersion,OS,frameRate,study_id,instruction_exp.started,instruction_exp.stopped,key_resp_8.keys,key_resp_8.rt,key_resp_8.duration,instruction_single.started,instruction_single.stopped,key_resp_2.keys,key_resp_2.rt,key_resp_2.duration,interval.started,interval.stopped,cue_single.started,cue_single.stopped,mask.started,mask.stopped,ori_response_single.started,res_ori,res,ori_response_single.stopped,key_resp_single.keys,key_resp_single.rt,key_resp_single.duration,disp_single.started,disp_single.stopped,key_resp.keys,key_resp.rt,key_resp.duration,single.thisRepN,single.thisTrialN,single.thisN,single.thisIndex,single.ran,ori,path,mask_path,instruction_bandit.started,instruction_bandit.stopped,key_resp_6.keys,key_resp_6.rt,key_resp_6.duration,cue_bandit.started,cue_bandit.stopped,bandit_res.keys,bandit_res.rt,bandit_res.duration,outcome_bandit.started,rew,action,outcome_bandit.stopped,bandit.thisRepN,bandit.thisTrialN,bandit.thisN,bandit.thisIndex,bandit.ran,actual_rew1,actual_rew2,rew1,rew2,instruction_task.started,instruction_task.stopped,key_resp_7.keys,key_resp_7.rt,key_resp_7.duration,wait_ready.started,wait_ready.stopped,key_resp_3.keys,key_resp_3.rt,key_resp_3.duration,cue.started,cue.stopped,ori_response.started,ori_response.stopped,key_resp_5.keys,key_resp_5.rt,key_resp_5.duration,outcome.started,diff1,diff2,outcome.stopped,disp_outcome_practice.started,disp_outcome_practice.stopped,key_resp_4.keys,key_resp_4.rt,key_resp_4.duration,trials.thisRepN,trials.thisTrialN,trials.thisN,trials.thisIndex,trials.ran,ori1,ori2,break_blk.started,break_blk.stopped,block.thisRepN,block.thisTrialN,block.thisN,block.thisIndex,block.ran,condition_file
0,0,6026891e02f12c316ba8bcbb,65af541f996cbb0023daa0eb,2024-01-23_06h52.35.127,bars,2023.2.3,Win32,144.092219,657b66ea316d21385b68909f,,,,,,,,,,,,,,,,,,,,,,,,,,,,,,,,,,,,,,,,,,,,,,,,,,,,,,,,,,,,,,,,,,,,,,,,,,,,,,,,,,,,,,,,,,,,,,,,,,,,
,,6026891e02f12c316ba8bcbb,65af541f996cbb0023daa0eb,2024-01-23_06h52.35.127,bars,2023.2.3,Win32,144.092219,657b66ea316d21385b68909f,0,6.206,y,6.178,,,,,,,,,,,,,,,,,,,,,,,,,,,,,,,,,,,,,,,,,,,,,,,,,,,,,,,,,,,,,,,,,,,,,,,,,,,,,,,,,,,,,,,,,,,,,,,,
,,6026891e02f12c316ba8bcbb,65af541f996cbb0023daa0eb,2024-01-23_06h52.35.127,bars,2023.2.3,Win32,144.092219,657b66ea316d21385b68909f,,,,,,6.206,14.435,space,8.219,,,,,,,,,,,,,,,,,,,,,,,,,,,,,,,,,,,,,,,,,,,,,,,,,,,,,,,,,,,,,,,,,,,,,,,,,,,,,,,,,,,,,,,,,,,
,,6026891e02f12c316ba8bcbb,65af541f996cbb0023daa0eb,2024-01-23_06h52.35.127,bars,2023.2.3,Win32,144.092219,657b66ea316d21385b68909f,,,,,,,,,,,14.439,15.434,15.434,15.935,15.935,16.184,16.184,122,122,23.081,space,6.884,,23.081,26.726,space,3.634,,0,0,0,4,1,95,bars/single004.png,bars/mask004.png,,,,,,,,,,,,,,,,,,,,,,,,,,,,,,,,,,,,,,,,,,,,,,,,,,,,,,,,,,,,,,,,
,,6026891e02f12c316ba8bcbb,65af541f996cbb0023daa0eb,2024-01-23_06h52.35.127,bars,2023.2.3,Win32,144.092219,657b66ea316d21385b68909f,,,,,,,,,,,26.726,27.726,27.726,28.226,28.226,28.476,28.476,79,79,34.15,space,5.668,,34.15,40.949,space,6.795,,0,1,1,1,1,20,bars/single001.png,bars/mask006.png,,,,,,,,,,,,,,,,,,,,,,,,,,,,,,,,,,,,,,,,,,,,,,,,,,,,,,,,,,,,,,,,
,,6026891e02f12c316ba8bcbb,65af541f996cbb0023daa0eb,2024-01-23_06h52.35.127,bars,2023.2.3,Win32,144.092219,657b66ea316d21385b68909f,,,,,,,,,,,40.951,41.948,41.948,42.448,42.449,42.699,42.699,13,13,45.018,space,2.313,,45.018,50.442,space,5.417,,0,2,2,7,1,45,bars/single007.png,bars/mask009.png,,,,,,,,,,,,,,,,,,,,,,,,,,,,,,,,,,,,,,,,,,,,,,,,,,,,,,,,,,,,,,,,
,,6026891e02f12c316ba8bcbb,65af541f996cbb0023daa0eb,2024-01-23_06h52.35.127,bars,2023.2.3,Win32,144.092219,657b66ea316d21385b68909f,,,,,,,,,,,50.443,51.442,51.442,51.942,51.942,52.192,52.192,34,34,55.38,space,3.181,,55.38,62.007,space,6.623,,0,3,3,5,1,55,bars/single005.png,bars/mask008.png,,,,,,,,,,,,,,,,,,,,,,,,,,,,,,,,,,,,,,,,,,,,,,,,,,,,,,,,,,,,,,,,
,,6026891e02f12c316ba8bcbb,65af541f996cbb0023daa0eb,2024-01-23_06h52.35.127,bars,2023.2.3,Win32,144.092219,657b66ea316d21385b68909f,,,,,,,,,,,62.007,63.004,63.005,63.505,63.505,63.754,63.754,150,150,67.859,space,4.099,,67.859,70.561,space,2.695,,0,4,4,8,1,160,bars/single008.png,bars/mask004.png,,,,,,,,,,,,,,,,,,,,,,,,,,,,,,,,,,,,,,,,,,,,,,,,,,,,,,,,,,,,,,,,
,,6026891e02f12c316ba8bcbb,65af541f996cbb0023daa0eb,2024-01-23_06h52.35.127,bars,2023.2.3,Win32,144.092219,657b66ea316d21385b68909f,,,,,,,,,,,70.562,71.56,71.56,72.06,72.06,72.31,72.31,25,205,77.172,space,4.855,,77.172,79.422,space,2.243,,0,5,5,3,1,20,bars/single003.png,bars/mask005.png,,,,,,,,,,,,,,,,,,,,,,,,,,,,,,,,,,,,,,,,,,,,,,,,,,,,,,,,,,,,,,,,
,,6026891e02f12c316ba8bcbb,65af541f996cbb0023daa0eb,2024-01-23_06h52.35.127,bars,2023.2.3,Win32,144.092219,657b66ea316d21385b68909f,,,,,,,,,,,79.423,80.422,80.422,80.922,80.922,81.172,81.172,19,199,85.707,space,4.531,,85.707,88.443,space,2.728,,0,6,6,9,1,20,bars/single009.png,bars/mask006.png,,,,,,,,,,,,,,,,,,,,,,,,,,,,,,,,,,,,,,,,,,,,,,,,,,,,,,,,,,,,,,,,
,,6026891e02f12c316ba8bcbb,65af541f996cbb0023daa0eb,2024-01-23_06h52.35.127,bars,2023.2.3,Win32,144.092219,657b66ea316d21385b68909f,,,,,,,,,,,88.443,89.443,89.443,89.943,89.943,90.193,90.193,110,110,91.741,space,1.541,,91.741,92.429,space,0.68,,0,7,7,0,1,150,bars/single000.png,bars/mask006.png,,,,,,,,,,,,,,,,,,,,,,,,,,,,,,,,,,,,,,,,,,,,,,,,,,,,,,,,,,,,,,,,
,,6026891e02f12c316ba8bcbb,65af541f996cbb0023daa0eb,2024-01-23_06h52.35.127,bars,2023.2.3,Win32,144.092219,657b66ea316d21385b68909f,,,,,,,,,,,92.429,93.43,93.43,93.93,93.93,94.179,94.179,124,124,94.735,space,0.551,,94.735,96.088,space,1.35,,0,8,8,2,1,145,bars/single002.png,bars/mask003.png,,,,,,,,,,,,,,,,,,,,,,,,,,,,,,,,,,,,,,,,,,,,,,,,,,,,,,,,,,,,,,,,
,,6026891e02f12c316ba8bcbb,65af541f996cbb0023daa0eb,2024-01-23_06h52.35.127,bars,2023.2.3,Win32,144.092219,657b66ea316d21385b68909f,,,,,,,,,,,96.089,97.089,97.089,97.589,97.589,97.839,97.839,145,145,101.138,space,3.295,,101.138,103.506,space,2.364,,0,9,9,6,1,175,bars/single006.png,bars/mask005.png,,,,,,,,,,,,,,,,,,,,,,,,,,,,,,,,,,,,,,,,,,,,,,,,,,,,,,,,,,,,,,,,
,,6026891e02f12c316ba8bcbb,65af541f996cbb0023daa0eb,2024-01-23_06h52.35.127,bars,2023.2.3,Win32,144.092219,657b66ea316d21385b68909f,,,,,,,,,,,,,,,,,,,,,,,,,,,,,,,,,,,,,103.507,112.256,space,8.737,,,,,,,,,,,,,,,,,,,,,,,,,,,,,,,,,,,,,,,,,,,,,,,,,,,,,,,,,,,,
,,6026891e02f12c316ba8bcbb,65af541f996cbb0023daa0eb,2024-01-23_06h52.35.127,bars,2023.2.3,Win32,144.092219,657b66ea316d21385b68909f,,,,,,,,,,,,,,,,,,,,,,,,,,,,,,,,,,,,,,,,,,112.26,116.576,right,4.301,,116.576,2,2,117.575,0,0,0,0,1,9,1,9,2,,,,,,,,,,,,,,,,,,,,,,,,,,,,,,,,,,,,,,,,,
,,6026891e02f12c316ba8bcbb,65af541f996cbb0023daa0eb,2024-01-23_06h52.35.127,bars,2023.2.3,Win32,144.092219,657b66ea316d21385b68909f,,,,,,,,,,,,,,,,,,,,,,,,,,,,,,,,,,,,,,,,,,117.576,119.075,right,1.495,,119.075,1,2,120.076,0,1,1,1,1,10,0,10,1,,,,,,,,,,,,,,,,,,,,,,,,,,,,,,,,,,,,,,,,,
,,6026891e02f12c316ba8bcbb,65af541f996cbb0023daa0eb,2024-01-23_06h52.35.127,bars,2023.2.3,Win32,144.092219,657b66ea316d21385b68909f,,,,,,,,,,,,,,,,,,,,,,,,,,,,,,,,,,,,,,,,,,120.076,121.326,right,1.244,,121.326,2,2,122.326,0,2,2,2,1,10,2,10,2,,,,,,,,,,,,,,,,,,,,,,,,,,,,,,,,,,,,,,,,,
,,6026891e02f12c316ba8bcbb,65af541f996cbb0023daa0eb,2024-01-23_06h52.35.127,bars,2023.2.3,Win32,144.092219,657b66ea316d21385b68909f,,,,,,,,,,,,,,,,,,,,,,,,,,,,,,,,,,,,,,,,,,122.326,123.597,right,1.266,,123.597,3,2,124.597,0,3,3,3,1,8,4,7,3,,,,,,,,,,,,,,,,,,,,,,,,,,,,,,,,,,,,,,,,,
,,6026891e02f12c316ba8bcbb,65af541f996cbb0023daa0eb,2024-01-23_06h52.35.127,bars,2023.2.3,Win32,144.092219,657b66ea316d21385b68909f,,,,,,,,,,,,,,,,,,,,,,,,,,,,,,,,,,,,,,,,,,124.597,125.583,right,0.979,,125.583,1,2,126.583,0,4,4,4,1,6,2,5,1,,,,,,,,,,,,,,,,,,,,,,,,,,,,,,,,,,,,,,,,,
,,6026891e02f12c316ba8bcbb,65af541f996cbb0023daa0eb,2024-01-23_06h52.35.127,bars,2023.2.3,Win32,144.092219,657b66ea316d21385b68909f,,,,,,,,,,,,,,,,,,,,,,,,,,,,,,,,,,,,,,,,,,126.583,126.943,right,0.354,,126.943,4,2,127.944,0,5,5,5,1,4,4,4,4,,,,,,,,,,,,,,,,,,,,,,,,,,,,,,,,,,,,,,,,,
,,6026891e02f12c316ba8bcbb,65af541f996cbb0023daa0eb,2024-01-23_06h52.35.127,bars,2023.2.3,Win32,144.092219,657b66ea316d21385b68909f,,,,,,,,,,,,,,,,,,,,,,,,,,,,,,,,,,,,,,,,,,127.944,128.631,left,0.68,,128.631,1,1,129.631,0,6,6,6,1,2,2,1,2,,,,,,,,,,,,,,,,,,,,,,,,,,,,,,,,,,,,,,,,,
,,6026891e02f12c316ba8bcbb,65af541f996cbb0023daa0eb,2024-01-23_06h52.35.127,bars,2023.2.3,Win32,144.092219,657b66ea316d21385b68909f,,,,,,,,,,,,,,,,,,,,,,,,,,,,,,,,,,,,,,,,,,129.632,130.111,right,0.473,,130.111,1,2,131.11,0,7,7,7,1,0,0,0,1,,,,,,,,,,,,,,,,,,,,,,,,,,,,,,,,,,,,,,,,,
,,6026891e02f12c316ba8bcbb,65af541f996cbb0023daa0eb,2024-01-23_06h52.35.127,bars,2023.2.3,Win32,144.092219,657b66ea316d21385b68909f,,,,,,,,,,,,,,,,,,,,,,,,,,,,,,,,,,,,,,,,,,131.11,131.708,right,0.595,,131.708,0,2,132.708,0,8,8,8,1,0,2,1,0,,,,,,,,,,,,,,,,,,,,,,,,,,,,,,,,,,,,,,,,,
,,6026891e02f12c316ba8bcbb,65af541f996cbb0023daa0eb,2024-01-23_06h52.35.127,bars,2023.2.3,Win32,144.092219,657b66ea316d21385b68909f,,,,,,,,,,,,,,,,,,,,,,,,,,,,,,,,,,,,,,,,,,132.708,132.937,left,0.223,,132.937,2,1,133.937,0,9,9,9,1,2,4,2,3,,,,,,,,,,,,,,,,,,,,,,,,,,,,,,,,,,,,,,,,,
,,6026891e02f12c316ba8bcbb,65af541f996cbb0023daa0eb,2024-01-23_06h52.35.127,bars,2023.2.3,Win32,144.092219,657b66ea316d21385b68909f,,,,,,,,,,,,,,,,,,,,,,,,,,,,,,,,,,,,,,,,,,133.937,134.43,left,0.487,,134.43,0,1,135.43,0,10,10,10,1,0,2,0,3,,,,,,,,,,,,,,,,,,,,,,,,,,,,,,,,,,,,,,,,,
,,6026891e02f12c316ba8bcbb,65af541f996cbb0023daa0eb,2024-01-23_06h52.35.127,bars,2023.2.3,Win32,144.092219,657b66ea316d21385b68909f,,,,,,,,,,,,,,,,,,,,,,,,,,,,,,,,,,,,,,,,,,135.432,135.701,right,0.266,,135.701,3,2,136.701,0,11,11,11,1,0,4,0,3,,,,,,,,,,,,,,,,,,,,,,,,,,,,,,,,,,,,,,,,,
,,6026891e02f12c316ba8bcbb,65af541f996cbb0023daa0eb,2024-01-23_06h52.35.127,bars,2023.2.3,Win32,144.092219,657b66ea316d21385b68909f,,,,,,,,,,,,,,,,,,,,,,,,,,,,,,,,,,,,,,,,,,136.702,137.041,right,0.334,,137.041,6,2,138.042,0,12,12,12,1,2,6,1,6,,,,,,,,,,,,,,,,,,,,,,,,,,,,,,,,,,,,,,,,,
,,6026891e02f12c316ba8bcbb,65af541f996cbb0023daa0eb,2024-01-23_06h52.35.127,bars,2023.2.3,Win32,144.092219,657b66ea316d21385b68909f,,,,,,,,,,,,,,,,,,,,,,,,,,,,,,,,,,,,,,,,,,138.042,138.374,right,0.327,,138.374,3,2,139.375,0,13,13,13,1,0,4,1,3,,,,,,,,,,,,,,,,,,,,,,,,,,,,,,,,,,,,,,,,,
,,6026891e02f12c316ba8bcbb,65af541f996cbb0023daa0eb,2024-01-23_06h52.35.127,bars,2023.2.3,Win32,144.092219,657b66ea316d21385b68909f,,,,,,,,,,,,,,,,,,,,,,,,,,,,,,,,,,,,,,,,,,139.375,139.826,right,0.445,,139.826,7,2,140.826,0,14,14,14,1,2,6,2,7,,,,,,,,,,,,,,,,,,,,,,,,,,,,,,,,,,,,,,,,,
,,6026891e02f12c316ba8bcbb,65af541f996cbb0023daa0eb,2024-01-23_06h52.35.127,bars,2023.2.3,Win32,144.092219,657b66ea316d21385b68909f,,,,,,,,,,,,,,,,,,,,,,,,,,,,,,,,,,,,,,,,,,140.827,141.229,right,0.398,,141.229,9,2,142.229,0,15,15,15,1,4,8,3,9,,,,,,,,,,,,,,,,,,,,,,,,,,,,,,,,,,,,,,,,,
,,6026891e02f12c316ba8bcbb,65af541f996cbb0023daa0eb,2024-01-23_06h52.35.127,bars,2023.2.3,Win32,144.092219,657b66ea316d21385b68909f,,,,,,,,,,,,,,,,,,,,,,,,,,,,,,,,,,,,,,,,,,142.229,142.666,left,0.429,,142.666,7,1,143.667,0,16,16,16,1,6,6,7,7,,,,,,,,,,,,,,,,,,,,,,,,,,,,,,,,,,,,,,,,,
,,6026891e02f12c316ba8bcbb,65af541f996cbb0023daa0eb,2024-01-23_06h52.35.127,bars,2023.2.3,Win32,144.092219,657b66ea316d21385b68909f,,,,,,,,,,,,,,,,,,,,,,,,,,,,,,,,,,,,,,,,,,143.667,144.465,right,0.791,,144.465,5,2,145.465,0,17,17,17,1,8,4,9,5,,,,,,,,,,,,,,,,,,,,,,,,,,,,,,,,,,,,,,,,,
,,6026891e02f12c316ba8bcbb,65af541f996cbb0023daa0eb,2024-01-23_06h52.35.127,bars,2023.2.3,Win32,144.092219,657b66ea316d21385b68909f,,,,,,,,,,,,,,,,,,,,,,,,,,,,,,,,,,,,,,,,,,145.466,145.562,right,0.09,,145.562,1,2,146.562,0,18,18,18,1,6,2,5,1,,,,,,,,,,,,,,,,,,,,,,,,,,,,,,,,,,,,,,,,,
,,6026891e02f12c316ba8bcbb,65af541f996cbb0023daa0eb,2024-01-23_06h52.35.127,bars,2023.2.3,Win32,144.092219,657b66ea316d21385b68909f,,,,,,,,,,,,,,,,,,,,,,,,,,,,,,,,,,,,,,,,,,146.562,146.569,left,0,,146.569,7,1,147.569,0,19,19,19,1,8,0,7,0,,,,,,,,,,,,,,,,,,,,,,,,,,,,,,,,,,,,,,,,,
,,6026891e02f12c316ba8bcbb,65af541f996cbb0023daa0eb,2024-01-23_06h52.35.127,bars,2023.2.3,Win32,144.092219,657b66ea316d21385b68909f,,,,,,,,,,,,,,,,,,,,,,,,,,,,,,,,,,,,,,,,,,,,,,,,,,,,,,,,,,,,147.57,156.326,space,8.748,,,,,,,,,,,,,,,,,,,,,,,,,,,,,,,,,,,,,
,,6026891e02f12c316ba8bcbb,65af541f996cbb0023daa0eb,2024-01-23_06h52.35.127,bars,2023.2.3,Win32,144.092219,657b66ea316d21385b68909f,,,,,,,,,,,157.406,158.402,,,158.903,159.153,,162,162,,,,,,,,,,,,,,,,bars/032.png,bars/mask004.png,,,,,,,,,,,,0,1,,,,,,,9,8,9,9,,,,,,156.329,157.402,space,1.064,,158.403,158.903,159.153,163.098,space,3.936,,163.098,37,38,164.098,164.098,167.882,space,3.771,,0,0,0,0,1,125,20,,,,,,,,
,,6026891e02f12c316ba8bcbb,65af541f996cbb0023daa0eb,2024-01-23_06h52.35.127,bars,2023.2.3,Win32,144.092219,657b66ea316d21385b68909f,,,,,,,,,,,167.882,168.882,,,169.382,169.632,,140,140,,,,,,,,,,,,,,,,bars/049.png,bars/mask000.png,,,,,,,,,,,,2,1,,,,,,,7,10,7,10,,,,,,,,,,,168.883,169.382,169.632,172.945,space,3.307,,172.945,20,25,173.945,173.945,178.077,space,4.125,,0,1,1,1,1,160,115,,,,,,,,
,,6026891e02f12c316ba8bcbb,65af541f996cbb0023daa0eb,2024-01-23_06h52.35.127,bars,2023.2.3,Win32,144.092219,657b66ea316d21385b68909f,,,,,,,,,,,178.078,179.077,,,179.577,179.827,,20,20,,,,,,,,,,,,,,,,bars/020.png,bars/mask006.png,,,,,,,,,,,,0,2,,,,,,,9,10,9,10,,,,,,,,,,,179.077,179.577,179.827,184.272,space,4.443,,184.272,85,30,185.272,185.272,189.626,space,4.346,,0,2,2,2,1,115,170,,,,,,,,
,,6026891e02f12c316ba8bcbb,65af541f996cbb0023daa0eb,2024-01-23_06h52.35.127,bars,2023.2.3,Win32,144.092219,657b66ea316d21385b68909f,,,,,,,,,,,189.626,190.626,,,191.126,191.376,,6,6,,,,,,,,,,,,,,,,bars/009.png,bars/mask006.png,,,,,,,,,,,,6,1,,,,,,,7,8,8,6,,,,,,,,,,,190.626,191.125,191.376,197.195,space,5.814,,197.195,9,81,198.196,198.196,199.674,space,1.47,,0,3,3,3,1,15,105,,,,,,,,
,,6026891e02f12c316ba8bcbb,65af541f996cbb0023daa0eb,2024-01-23_06h52.35.127,bars,2023.2.3,Win32,144.092219,657b66ea316d21385b68909f,,,,,,,,,,,199.675,200.675,,,201.175,201.424,,0,0,,,,,,,,,,,,,,,,bars/047.png,bars/mask003.png,,,,,,,,,,,,3,1,,,,,,,5,10,6,10,,,,,,,,,,,200.675,201.175,201.424,204.501,space,3.07,,204.501,15,70,205.501,205.501,206.397,space,0.886,,0,4,4,4,1,15,70,,,,,,,,
,,6026891e02f12c316ba8bcbb,65af541f996cbb0023daa0eb,2024-01-23_06h52.35.127,bars,2023.2.3,Win32,144.092219,657b66ea316d21385b68909f,,,,,,,,,,,206.398,207.397,,,207.897,208.147,,21,21,,,,,,,,,,,,,,,,bars/020.png,bars/mask006.png,,,,,,,,,,,,0,2,,,,,,,7,8,7,8,,,,,,,,,,,207.397,207.897,208.147,209.196,space,1.042,,209.196,86,31,210.196,210.196,210.994,space,0.792,,0,5,5,5,1,115,170,,,,,,,,
,,6026891e02f12c316ba8bcbb,65af541f996cbb0023daa0eb,2024-01-23_06h52.35.127,bars,2023.2.3,Win32,144.092219,657b66ea316d21385b68909f,,,,,,,,,,,210.995,211.994,,,212.495,212.745,,54,54,,,,,,,,,,,,,,,,bars/006.png,bars/mask007.png,,,,,,,,,,,,3,1,,,,,,,9,6,9,5,,,,,,,,,,,211.994,212.495,212.745,217.071,space,4.319,,217.071,19,46,218.071,218.071,225.161,space,7.08,,0,6,6,6,1,35,100,,,,,,,,
,,6026891e02f12c316ba8bcbb,65af541f996cbb0023daa0eb,2024-01-23_06h52.35.127,bars,2023.2.3,Win32,144.092219,657b66ea316d21385b68909f,,,,,,,,,,,225.162,226.161,,,226.661,226.911,,96,96,,,,,,,,,,,,,,,,bars/031.png,bars/mask007.png,,,,,,,,,,,,1,1,,,,,,,7,4,7,2,,,,,,,,,,,226.161,226.661,226.911,230.217,space,3.3,,230.217,24,61,231.217,231.217,236.031,space,4.808,,0,7,7,7,1,120,35,,,,,,,,
,,6026891e02f12c316ba8bcbb,65af541f996cbb0023daa0eb,2024-01-23_06h52.35.127,bars,2023.2.3,Win32,144.092219,657b66ea316d21385b68909f,,,,,,,,,,,236.032,237.029,,,237.529,237.78,,41,41,,,,,,,,,,,,,,,,bars/047.png,bars/mask000.png,,,,,,,,,,,,1,1,,,,,,,5,2,6,3,,,,,,,,,,,237.029,237.529,237.78,243.475,space,5.688,,243.475,26,29,244.474,244.474,245.023,space,0.541,,0,8,8,8,1,15,70,,,,,,,,
,,6026891e02f12c316ba8bcbb,65af541f996cbb0023daa0eb,2024-01-23_06h52.35.127,bars,2023.2.3,Win32,144.092219,657b66ea316d21385b68909f,,,,,,,,,,,245.023,246.023,,,246.523,246.773,,12,192,,,,,,,,,,,,,,,,bars/039.png,bars/mask002.png,,,,,,,,,,,,3,1,,,,,,,7,4,8,4,,,,,,,,,,,246.023,246.523,246.773,249.044,space,2.264,,249.044,17,87,250.044,250.044,251.495,space,1.445,,0,9,9,9,1,175,105,,,,,,,,
,,6026891e02f12c316ba8bcbb,65af541f996cbb0023daa0eb,2024-01-23_06h52.35.127,bars,2023.2.3,Win32,144.092219,657b66ea316d21385b68909f,,,,,,,,,,,251.496,252.495,,,252.996,253.245,,126,126,,,,,,,,,,,,,,,,bars/046.png,bars/mask004.png,,,,,,,,,,,,0,1,,,,,,,9,2,10,2,,,,,,,,,,,252.495,252.995,253.245,258.072,space,4.822,,258.072,29,41,259.072,259.072,260.266,space,1.188,,0,10,10,10,1,155,85,,,,,,,,
,,6026891e02f12c316ba8bcbb,65af541f996cbb0023daa0eb,2024-01-23_06h52.35.127,bars,2023.2.3,Win32,144.092219,657b66ea316d21385b68909f,,,,,,,,,,,260.266,261.266,,,261.767,262.015,,167,167,,,,,,,,,,,,,,,,bars/003.png,bars/mask009.png,,,,,,,,,,,,0,2,,,,,,,7,0,7,0,,,,,,,,,,,261.267,261.767,262.015,263.697,space,1.678,,263.698,38,27,264.697,264.697,265.468,space,0.76,,0,11,11,11,1,25,140,,,,,,,,
,,6026891e02f12c316ba8bcbb,65af541f996cbb0023daa0eb,2024-01-23_06h52.35.127,bars,2023.2.3,Win32,144.092219,657b66ea316d21385b68909f,,,,,,,,,,,265.468,266.468,,,266.968,267.218,,122,122,,,,,,,,,,,,,,,,bars/022.png,bars/mask008.png,,,,,,,,,,,,1,1,,,,,,,9,0,9,0,,,,,,,,,,,266.468,266.968,267.218,270.121,space,2.897,,270.121,27,78,271.12,271.12,273.066,space,1.935,,0,12,12,12,1,95,20,,,,,,,,
,,6026891e02f12c316ba8bcbb,65af541f996cbb0023daa0eb,2024-01-23_06h52.35.127,bars,2023.2.3,Win32,144.092219,657b66ea316d21385b68909f,,,,,,,,,,,273.066,274.065,,,274.565,274.815,,134,134,,,,,,,,,,,,,,,,bars/037.png,bars/mask002.png,,,,,,,,,,,,5,1,,,,,,,10,0,10,2,,,,,,,,,,,274.065,274.565,274.815,276.732,space,1.91,,276.732,16,29,277.731,277.731,279.162,space,1.416,,0,13,13,13,1,150,105,,,,,,,,
,,6026891e02f12c316ba8bcbb,65af541f996cbb0023daa0eb,2024-01-23_06h52.35.127,bars,2023.2.3,Win32,144.092219,657b66ea316d21385b68909f,,,,,,,,,,,279.163,280.162,,,280.663,280.913,,34,34,,,,,,,,,,,,,,,,bars/028.png,bars/mask005.png,,,,,,,,,,,,5,1,,,,,,,10,2,8,0,,,,,,,,,,,280.162,280.663,280.913,284.066,space,3.147,,284.066,11,86,285.065,285.065,285.587,space,0.514,,0,14,14,14,1,45,120,,,,,,,,
,,6026891e02f12c316ba8bcbb,65af541f996cbb0023daa0eb,2024-01-23_06h52.35.127,bars,2023.2.3,Win32,144.092219,657b66ea316d21385b68909f,,,,,,,,,,,285.587,286.586,,,287.086,287.337,,61,241,,,,,,,,,,,,,,,,bars/018.png,bars/mask004.png,,,,,,,,,,,,0,2,,,,,,,8,4,8,4,,,,,,,,,,,286.586,287.086,287.337,293.295,space,5.953,,293.295,89,29,294.295,294.295,294.843,space,0.538,,0,15,15,15,1,150,90,,,,,,,,
,,6026891e02f12c316ba8bcbb,65af541f996cbb0023daa0eb,2024-01-23_06h52.35.127,bars,2023.2.3,Win32,144.092219,657b66ea316d21385b68909f,,,,,,,,,,,294.844,295.843,,,296.343,296.593,,118,118,,,,,,,,,,,,,,,,bars/039.png,bars/mask002.png,,,,,,,,,,,,1,2,,,,,,,10,2,10,2,,,,,,,,,,,295.843,296.343,296.593,299.51,space,2.911,,299.51,57,13,300.51,300.51,301.212,space,0.694,,0,16,16,16,1,175,105,,,,,,,,
,,6026891e02f12c316ba8bcbb,65af541f996cbb0023daa0eb,2024-01-23_06h52.35.127,bars,2023.2.3,Win32,144.092219,657b66ea316d21385b68909f,,,,,,,,,,,301.213,302.211,,,302.711,302.961,,91,91,,,,,,,,,,,,,,,,bars/021.png,bars/mask003.png,,,,,,,,,,,,0,2,,,,,,,8,0,8,1,,,,,,,,,,,302.211,302.711,302.961,305.205,space,2.239,,305.205,64,21,306.204,306.204,306.427,space,0.215,,0,17,17,17,1,155,70,,,,,,,,
,,6026891e02f12c316ba8bcbb,65af541f996cbb0023daa0eb,2024-01-23_06h52.35.127,bars,2023.2.3,Win32,144.092219,657b66ea316d21385b68909f,,,,,,,,,,,306.428,307.427,,,307.927,308.177,,111,111,,,,,,,,,,,,,,,,bars/002.png,bars/mask002.png,,,,,,,,,,,,2,1,,,,,,,6,0,5,0,,,,,,,,,,,307.427,307.927,308.177,310.393,space,2.209,,310.393,19,26,311.392,311.392,311.795,space,0.395,,0,18,18,18,1,130,85,,,,,,,,
,,6026891e02f12c316ba8bcbb,65af541f996cbb0023daa0eb,2024-01-23_06h52.35.127,bars,2023.2.3,Win32,144.092219,657b66ea316d21385b68909f,,,,,,,,,,,311.796,312.795,,,313.295,313.545,,165,165,,,,,,,,,,,,,,,,bars/000.png,bars/mask000.png,,,,,,,,,,,,0,2,,,,,,,8,0,9,0,,,,,,,,,,,312.795,313.295,313.545,314.719,space,1.168,,314.719,55,20,315.719,315.719,316.08,space,0.352,,0,19,19,19,1,40,145,,,,,,,,
,,6026891e02f12c316ba8bcbb,65af541f996cbb0023daa0eb,2024-01-23_06h52.35.127,bars,2023.2.3,Win32,144.092219,657b66ea316d21385b68909f,,,,,,,,,,,316.08,317.08,,,317.581,317.831,,39,219,,,,,,,,,,,,,,,,bars/008.png,bars/mask002.png,,,,,,,,,,,,0,2,,,,,,,6,2,5,1,,,,,,,,,,,317.08,317.581,317.831,321.108,space,3.273,,321.108,71,39,322.108,322.108,322.879,space,0.761,,0,20,20,20,1,110,0,,,,,,,,
,,6026891e02f12c316ba8bcbb,65af541f996cbb0023daa0eb,2024-01-23_06h52.35.127,bars,2023.2.3,Win32,144.092219,657b66ea316d21385b68909f,,,,,,,,,,,322.88,323.879,,,324.378,324.629,,101,101,,,,,,,,,,,,,,,,bars/028.png,bars/mask001.png,,,,,,,,,,,,0,2,,,,,,,4,0,4,0,,,,,,,,,,,323.879,324.378,324.629,325.56,space,0.926,,325.56,56,19,326.56,326.56,326.886,space,0.319,,0,21,21,21,1,45,120,,,,,,,,
,,6026891e02f12c316ba8bcbb,65af541f996cbb0023daa0eb,2024-01-23_06h52.35.127,bars,2023.2.3,Win32,144.092219,657b66ea316d21385b68909f,,,,,,,,,,,326.886,327.886,,,328.386,328.636,,63,63,,,,,,,,,,,,,,,,bars/029.png,bars/mask000.png,,,,,,,,,,,,0,2,,,,,,,6,0,5,0,,,,,,,,,,,327.886,328.386,328.636,332.177,space,3.535,,332.177,27,18,333.178,333.178,333.684,space,0.502,,0,22,22,22,1,90,45,,,,,,,,
,,6026891e02f12c316ba8bcbb,65af541f996cbb0023daa0eb,2024-01-23_06h52.35.127,bars,2023.2.3,Win32,144.092219,657b66ea316d21385b68909f,,,,,,,,,,,333.684,334.686,,,335.185,335.435,,175,-5,,,,,,,,,,,,,,,,bars/040.png,bars/mask009.png,,,,,,,,,,,,0,2,,,,,,,4,0,4,0,,,,,,,,,,,334.686,335.185,335.435,338.053,space,2.614,,338.053,35,10,339.053,339.053,339.318,space,0.26,,0,23,23,23,1,140,5,,,,,,,,
,,6026891e02f12c316ba8bcbb,65af541f996cbb0023daa0eb,2024-01-23_06h52.35.127,bars,2023.2.3,Win32,144.092219,657b66ea316d21385b68909f,,,,,,,,,,,339.318,340.317,,,340.817,341.066,,114,114,,,,,,,,,,,,,,,,bars/038.png,bars/mask008.png,,,,,,,,,,,,0,2,,,,,,,6,0,5,0,,,,,,,,,,,340.317,340.817,341.066,343.567,space,2.494,,343.567,51,44,344.566,344.567,346.365,space,1.793,,0,24,24,24,1,165,70,,,,,,,,
,,6026891e02f12c316ba8bcbb,65af541f996cbb0023daa0eb,2024-01-23_06h52.35.127,bars,2023.2.3,Win32,144.092219,657b66ea316d21385b68909f,,,,,,,,,,,346.366,347.366,,,347.866,348.116,,156,156,,,,,,,,,,,,,,,,bars/038.png,bars/mask000.png,,,,,,,,,,,,5,1,,,,,,,8,2,7,2,,,,,,,,,,,347.366,347.866,348.116,349.977,space,1.855,,349.977,9,86,350.977,350.977,351.512,space,0.527,,0,25,25,25,1,165,70,,,,,,,,
,,6026891e02f12c316ba8bcbb,65af541f996cbb0023daa0eb,2024-01-23_06h52.35.127,bars,2023.2.3,Win32,144.092219,657b66ea316d21385b68909f,,,,,,,,,,,351.512,352.511,,,353.011,353.262,,41,41,,,,,,,,,,,,,,,,bars/028.png,bars/mask008.png,,,,,,,,,,,,9,1,,,,,,,10,4,10,4,,,,,,,,,,,352.511,353.011,353.262,357.754,space,4.486,,357.755,4,79,358.755,358.755,359.352,space,0.591,,0,26,26,26,1,45,120,,,,,,,,
,,6026891e02f12c316ba8bcbb,65af541f996cbb0023daa0eb,2024-01-23_06h52.35.127,bars,2023.2.3,Win32,144.092219,657b66ea316d21385b68909f,,,,,,,,,,,359.353,360.352,,,360.852,361.102,,149,149,,,,,,,,,,,,,,,,bars/021.png,bars/mask003.png,,,,,,,,,,,,7,1,,,,,,,10,6,9,8,,,,,,,,,,,360.352,360.851,361.102,361.935,space,0.829,,361.935,6,79,362.936,362.936,363.22,space,0.276,,0,27,27,27,1,155,70,,,,,,,,
,,6026891e02f12c316ba8bcbb,65af541f996cbb0023daa0eb,2024-01-23_06h52.35.127,bars,2023.2.3,Win32,144.092219,657b66ea316d21385b68909f,,,,,,,,,,,363.221,364.22,,,364.721,364.97,,14,14,,,,,,,,,,,,,,,,bars/041.png,bars/mask009.png,,,,,,,,,,,,5,1,,,,,,,8,4,6,5,,,,,,,,,,,364.221,364.721,364.97,368.484,space,3.508,,368.484,6,71,369.484,369.484,370.303,space,0.812,,0,28,28,28,1,20,85,,,,,,,,
,,6026891e02f12c316ba8bcbb,65af541f996cbb0023daa0eb,2024-01-23_06h52.35.127,bars,2023.2.3,Win32,144.092219,657b66ea316d21385b68909f,,,,,,,,,,,370.304,371.304,,,371.803,372.053,,96,96,,,,,,,,,,,,,,,,bars/045.png,bars/mask005.png,,,,,,,,,,,,9,1,,,,,,,10,2,10,2,,,,,,,,,,,371.304,371.803,372.053,375.532,space,3.472,,375.533,4,86,376.533,376.533,377.095,space,0.558,,0,29,29,29,1,100,10,,,,,,,,
,,6026891e02f12c316ba8bcbb,65af541f996cbb0023daa0eb,2024-01-23_06h52.35.127,bars,2023.2.3,Win32,144.092219,657b66ea316d21385b68909f,,,,,,,,,,,377.096,378.095,,,378.596,378.846,,105,105,,,,,,,,,,,,,,,,bars/031.png,bars/mask008.png,,,,,,,,,,,,5,1,,,,,,,10,0,10,0,,,,,,,,,,,378.095,378.596,378.846,380.776,space,1.928,,380.776,15,70,381.776,381.776,382.498,space,0.715,,0,30,30,30,1,120,35,,,,,,,,
,,6026891e02f12c316ba8bcbb,65af541f996cbb0023daa0eb,2024-01-23_06h52.35.127,bars,2023.2.3,Win32,144.092219,657b66ea316d21385b68909f,,,,,,,,,,,382.498,383.499,,,383.998,384.248,,97,97,,,,,,,,,,,,,,,,bars/029.png,bars/mask009.png,,,,,,,,,,,,5,1,,,,,,,8,0,7,0,,,,,,,,,,,383.499,383.998,384.248,385.38,space,1.125,,385.38,7,52,386.38,386.38,386.853,space,0.465,,0,31,31,31,1,90,45,,,,,,,,
,,6026891e02f12c316ba8bcbb,65af541f996cbb0023daa0eb,2024-01-23_06h52.35.127,bars,2023.2.3,Win32,144.092219,657b66ea316d21385b68909f,,,,,,,,,,,386.853,387.852,,,388.353,388.603,,1,1,,,,,,,,,,,,,,,,bars/039.png,bars/mask007.png,,,,,,,,,,,,5,1,,,,,,,6,2,6,4,,,,,,,,,,,387.852,388.353,388.603,390.735,space,2.126,,390.735,6,76,391.734,391.734,392.305,space,0.565,,0,32,32,32,1,175,105,,,,,,,,
,,6026891e02f12c316ba8bcbb,65af541f996cbb0023daa0eb,2024-01-23_06h52.35.127,bars,2023.2.3,Win32,144.092219,657b66ea316d21385b68909f,,,,,,,,,,,392.305,393.304,,,393.805,394.054,,138,138,,,,,,,,,,,,,,,,bars/040.png,bars/mask005.png,,,,,,,,,,,,5,1,,,,,,,4,4,5,5,,,,,,,,,,,393.305,393.805,394.054,397.79,space,3.73,,397.79,2,47,398.79,398.79,399.227,space,0.431,,0,33,33,33,1,140,5,,,,,,,,
,,6026891e02f12c316ba8bcbb,65af541f996cbb0023daa0eb,2024-01-23_06h52.35.127,bars,2023.2.3,Win32,144.092219,657b66ea316d21385b68909f,,,,,,,,,,,399.229,400.228,,,400.729,400.978,,34,34,,,,,,,,,,,,,,,,bars/006.png,bars/mask005.png,,,,,,,,,,,,7,1,,,,,,,6,2,7,3,,,,,,,,,,,400.228,400.729,400.978,404.485,space,3.5,,404.485,1,66,405.485,405.485,405.922,space,0.432,,0,34,34,34,1,35,100,,,,,,,,
,,6026891e02f12c316ba8bcbb,65af541f996cbb0023daa0eb,2024-01-23_06h52.35.127,bars,2023.2.3,Win32,144.092219,657b66ea316d21385b68909f,,,,,,,,,,,405.923,406.923,,,407.423,407.673,,34,34,,,,,,,,,,,,,,,,bars/028.png,bars/mask008.png,,,,,,,,,,,,2,1,,,,,,,4,0,3,0,,,,,,,,,,,406.923,407.423,407.673,411.062,space,3.383,,411.062,11,86,412.062,412.062,413.589,space,1.52,,0,35,35,35,1,45,120,,,,,,,,
,,6026891e02f12c316ba8bcbb,65af541f996cbb0023daa0eb,2024-01-23_06h52.35.127,bars,2023.2.3,Win32,144.092219,657b66ea316d21385b68909f,,,,,,,,,,,413.59,414.59,,,415.089,415.34,,31,31,,,,,,,,,,,,,,,,bars/004.png,bars/mask000.png,,,,,,,,,,,,5,1,,,,,,,6,0,6,1,,,,,,,,,,,414.59,415.089,415.34,417.214,space,1.869,,417.214,6,86,418.214,418.214,418.847,space,0.623,,0,36,36,36,1,25,125,,,,,,,,
,,6026891e02f12c316ba8bcbb,65af541f996cbb0023daa0eb,2024-01-23_06h52.35.127,bars,2023.2.3,Win32,144.092219,657b66ea316d21385b68909f,,,,,,,,,,,418.847,419.847,,,420.346,420.596,,104,104,,,,,,,,,,,,,,,,bars/015.png,bars/mask001.png,,,,,,,,,,,,2,1,,,,,,,4,2,3,4,,,,,,,,,,,419.847,420.346,420.596,423.659,space,3.059,,423.659,6,56,424.659,424.659,425.048,space,0.381,,0,37,37,37,1,110,160,,,,,,,,
,,6026891e02f12c316ba8bcbb,65af541f996cbb0023daa0eb,2024-01-23_06h52.35.127,bars,2023.2.3,Win32,144.092219,657b66ea316d21385b68909f,,,,,,,,,,,425.048,426.048,,,426.548,426.798,,130,130,,,,,,,,,,,,,,,,bars/030.png,bars/mask008.png,,,,,,,,,,,,1,1,,,,,,,2,4,2,4,,,,,,,,,,,426.048,426.548,426.798,427.52,space,0.715,,427.52,10,65,428.52,428.52,428.84,space,0.31,,0,38,38,38,1,140,65,,,,,,,,
,,6026891e02f12c316ba8bcbb,65af541f996cbb0023daa0eb,2024-01-23_06h52.35.127,bars,2023.2.3,Win32,144.092219,657b66ea316d21385b68909f,,,,,,,,,,,428.84,429.84,,,430.34,430.59,,166,-14,,,,,,,,,,,,,,,,bars/023.png,bars/mask004.png,,,,,,,,,,,,0,1,,,,,,,0,2,0,2,,,,,,,,,,,429.84,430.34,430.59,436.174,space,5.578,,436.174,34,51,437.173,437.173,437.576,space,0.394,,0,39,39,39,1,20,115,,,,,,,,
,,6026891e02f12c316ba8bcbb,65af541f996cbb0023daa0eb,2024-01-23_06h52.35.127,bars,2023.2.3,Win32,144.092219,657b66ea316d21385b68909f,,,,,,,,,,,437.576,438.576,,,439.076,439.326,,110,110,,,,,,,,,,,,,,,,bars/024.png,bars/mask002.png,,,,,,,,,,,,2,1,,,,,,,2,4,3,5,,,,,,,,,,,438.576,439.076,439.326,439.681,space,0.347,,439.681,10,60,440.68,440.68,441.625,space,0.936,,0,40,40,40,1,120,170,,,,,,,,
,,6026891e02f12c316ba8bcbb,65af541f996cbb0023daa0eb,2024-01-23_06h52.35.127,bars,2023.2.3,Win32,144.092219,657b66ea316d21385b68909f,,,,,,,,,,,441.625,442.625,,,443.125,443.375,,18,18,,,,,,,,,,,,,,,,bars/047.png,bars/mask008.png,,,,,,,,,,,,2,1,,,,,,,4,2,2,2,,,,,,,,,,,442.625,443.125,443.375,444.153,space,0.771,,444.153,3,52,445.153,445.153,445.542,space,0.384,,0,41,41,41,1,15,70,,,,,,,,
,,6026891e02f12c316ba8bcbb,65af541f996cbb0023daa0eb,2024-01-23_06h52.35.127,bars,2023.2.3,Win32,144.092219,657b66ea316d21385b68909f,,,,,,,,,,,445.542,446.541,,,447.042,447.291,,54,54,,,,,,,,,,,,,,,,bars/020.png,bars/mask006.png,,,,,,,,,,,,0,1,,,,,,,6,0,5,0,,,,,,,,,,,446.541,447.042,447.291,450.216,space,2.919,,450.216,61,64,451.215,451.215,451.528,space,0.305,,0,42,42,42,1,115,170,,,,,,,,
,,6026891e02f12c316ba8bcbb,65af541f996cbb0023daa0eb,2024-01-23_06h52.35.127,bars,2023.2.3,Win32,144.092219,657b66ea316d21385b68909f,,,,,,,,,,,451.528,452.527,,,453.028,453.278,,16,196,,,,,,,,,,,,,,,,bars/045.png,bars/mask009.png,,,,,,,,,,,,0,2,,,,,,,8,0,8,0,,,,,,,,,,,452.527,453.028,453.278,456.382,space,3.1,,456.382,84,6,457.382,457.382,458.895,space,1.506,,0,43,43,43,1,100,10,,,,,,,,
,,6026891e02f12c316ba8bcbb,65af541f996cbb0023daa0eb,2024-01-23_06h52.35.127,bars,2023.2.3,Win32,144.092219,657b66ea316d21385b68909f,,,,,,,,,,,458.896,459.896,,,460.396,460.646,,37,37,,,,,,,,,,,,,,,,bars/043.png,bars/mask007.png,,,,,,,,,,,,5,1,,,,,,,6,0,7,0,,,,,,,,,,,459.896,460.396,460.646,464.854,space,4.205,,464.854,7,87,465.854,465.854,466.445,space,0.582,,0,44,44,44,1,30,130,,,,,,,,
,,6026891e02f12c316ba8bcbb,65af541f996cbb0023daa0eb,2024-01-23_06h52.35.127,bars,2023.2.3,Win32,144.092219,657b66ea316d21385b68909f,,,,,,,,,,,466.445,467.445,,,467.945,468.195,,9,9,,,,,,,,,,,,,,,,bars/041.png,bars/mask001.png,,,,,,,,,,,,6,1,,,,,,,8,0,9,0,,,,,,,,,,,467.446,467.945,468.195,470.292,space,2.09,,470.292,11,76,471.292,471.292,471.723,space,0.423,,0,45,45,45,1,20,85,,,,,,,,
,,6026891e02f12c316ba8bcbb,65af541f996cbb0023daa0eb,2024-01-23_06h52.35.127,bars,2023.2.3,Win32,144.092219,657b66ea316d21385b68909f,,,,,,,,,,,471.723,472.722,,,473.222,473.472,,173,-7,,,,,,,,,,,,,,,,bars/039.png,bars/mask001.png,,,,,,,,,,,,7,1,,,,,,,10,2,8,2,,,,,,,,,,,472.722,473.222,473.472,477.529,space,4.052,,477.529,2,68,478.529,478.529,479,space,0.466,,0,46,46,46,1,175,105,,,,,,,,
,,6026891e02f12c316ba8bcbb,65af541f996cbb0023daa0eb,2024-01-23_06h52.35.127,bars,2023.2.3,Win32,144.092219,657b66ea316d21385b68909f,,,,,,,,,,,479.001,480.001,,,480.501,480.751,,20,200,,,,,,,,,,,,,,,,bars/005.png,bars/mask008.png,,,,,,,,,,,,5,1,,,,,,,8,4,7,4,,,,,,,,,,,480.001,480.501,480.751,482.598,space,1.84,,482.598,10,60,483.598,483.598,483.987,space,0.38,,0,47,47,47,1,10,140,,,,,,,,
,,6026891e02f12c316ba8bcbb,65af541f996cbb0023daa0eb,2024-01-23_06h52.35.127,bars,2023.2.3,Win32,144.092219,657b66ea316d21385b68909f,,,,,,,,,,,483.987,484.986,,,485.487,485.737,,0,0,,,,,,,,,,,,,,,,bars/023.png,bars/mask002.png,,,,,,,,,,,,2,1,,,,,,,6,6,5,5,,,,,,,,,,,484.987,485.487,485.737,490.382,space,4.638,,490.382,20,65,491.383,491.383,491.598,space,0.207,,0,48,48,48,1,20,115,,,,,,,,
,,6026891e02f12c316ba8bcbb,65af541f996cbb0023daa0eb,2024-01-23_06h52.35.127,bars,2023.2.3,Win32,144.092219,657b66ea316d21385b68909f,,,,,,,,,,,491.598,492.598,,,493.098,493.348,,154,154,,,,,,,,,,,,,,,,bars/021.png,bars/mask005.png,,,,,,,,,,,,4,1,,,,,,,4,4,4,5,,,,,,,,,,,492.598,493.098,493.348,495.196,space,1.843,,495.196,1,84,496.196,496.196,496.563,space,0.362,,0,49,49,49,1,155,70,,,,,,,,
,,6026891e02f12c316ba8bcbb,65af541f996cbb0023daa0eb,2024-01-23_06h52.35.127,bars,2023.2.3,Win32,144.092219,657b66ea316d21385b68909f,,,,,,,,,,,,,,,,,,,,,,,,,,,,,,,,,,,,,,,,,,,,,,,,,,,,,,,,,,,,,,,,,,,,,,,,,,,,,,,,,,,,,,,,,,,,,496.563,556.558,0,0,0,3,1,sequence_tables/blk000.csv
,,6026891e02f12c316ba8bcbb,65af541f996cbb0023daa0eb,2024-01-23_06h52.35.127,bars,2023.2.3,Win32,144.092219,657b66ea316d21385b68909f,,,,,,,,,,,601.328,602.33,,,602.823,603.073,,13,193,,,,,,,,,,,,,,,,bars/004.png,bars/mask007.png,,,,,,,,,,,,1,1,,,,,,,1,9,1,7,,,,,,556.56,601.323,space,44.757,,602.33,602.823,603.073,607.4,space,4.323,,607.4,12,68,608.399,608.399,608.402,,,,0,0,0,0,1,25,125,,,,,,,,
,,6026891e02f12c316ba8bcbb,65af541f996cbb0023daa0eb,2024-01-23_06h52.35.127,bars,2023.2.3,Win32,144.092219,657b66ea316d21385b68909f,,,,,,,,,,,608.402,609.4,,,609.9,610.149,,6,6,,,,,,,,,,,,,,,,bars/008.png,bars/mask004.png,,,,,,,,,,,,5,2,,,,,,,3,7,5,6,,,,,,,,,,,609.4,609.9,610.15,611.171,space,1.014,,611.171,76,6,612.17,612.17,612.173,,,,0,1,1,1,1,110,0,,,,,,,,
,,6026891e02f12c316ba8bcbb,65af541f996cbb0023daa0eb,2024-01-23_06h52.35.127,bars,2023.2.3,Win32,144.092219,657b66ea316d21385b68909f,,,,,,,,,,,612.174,613.171,,,613.67,613.92,,10,190,,,,,,,,,,,,,,,,bars/032.png,bars/mask001.png,,,,,,,,,,,,6,2,,,,,,,5,9,4,9,,,,,,,,,,,613.171,613.67,613.92,620.087,space,6.163,,620.087,65,10,621.087,621.087,621.089,,,,0,2,2,2,1,125,20,,,,,,,,
,,6026891e02f12c316ba8bcbb,65af541f996cbb0023daa0eb,2024-01-23_06h52.35.127,bars,2023.2.3,Win32,144.092219,657b66ea316d21385b68909f,,,,,,,,,,,621.089,622.087,,,622.588,622.837,,3,3,,,,,,,,,,,,,,,,bars/036.png,bars/mask007.png,,,,,,,,,,,,4,2,,,,,,,3,7,5,10,,,,,,,,,,,622.088,622.588,622.837,629.664,space,6.823,,629.664,38,17,630.664,630.664,630.664,,,,0,3,3,3,1,145,20,,,,,,,,
,,6026891e02f12c316ba8bcbb,65af541f996cbb0023daa0eb,2024-01-23_06h52.35.127,bars,2023.2.3,Win32,144.092219,657b66ea316d21385b68909f,,,,,,,,,,,630.665,631.664,,,632.164,632.414,,44,44,,,,,,,,,,,,,,,,bars/034.png,bars/mask007.png,,,,,,,,,,,,1,2,,,,,,,1,5,1,4,,,,,,,,,,,631.664,632.164,632.414,635.915,space,3.494,,635.915,81,21,636.914,636.914,636.916,,,,0,4,4,4,1,125,65,,,,,,,,
,,6026891e02f12c316ba8bcbb,65af541f996cbb0023daa0eb,2024-01-23_06h52.35.127,bars,2023.2.3,Win32,144.092219,657b66ea316d21385b68909f,,,,,,,,,,,636.916,637.914,,,638.414,638.664,,12,192,,,,,,,,,,,,,,,,bars/023.png,bars/mask000.png,,,,,,,,,,,,4,1,,,,,,,3,3,5,1,,,,,,,,,,,637.914,638.414,638.665,646.657,space,7.986,,646.657,8,77,647.657,647.657,647.66,,,,0,5,5,5,1,20,115,,,,,,,,
,,6026891e02f12c316ba8bcbb,65af541f996cbb0023daa0eb,2024-01-23_06h52.35.127,bars,2023.2.3,Win32,144.092219,657b66ea316d21385b68909f,,,,,,,,,,,647.66,648.658,,,649.158,649.407,,107,107,,,,,,,,,,,,,,,,bars/001.png,bars/mask002.png,,,,,,,,,,,,1,2,,,,,,,5,1,7,2,,,,,,,,,,,648.658,649.158,649.407,653.386,space,3.973,,653.386,23,22,654.387,654.387,654.389,,,,0,6,6,6,1,130,85,,,,,,,,
,,6026891e02f12c316ba8bcbb,65af541f996cbb0023daa0eb,2024-01-23_06h52.35.127,bars,2023.2.3,Win32,144.092219,657b66ea316d21385b68909f,,,,,,,,,,,654.389,655.386,,,655.887,656.137,,62,62,,,,,,,,,,,,,,,,bars/003.png,bars/mask004.png,,,,,,,,,,,,0,1,,,,,,,3,3,3,3,,,,,,,,,,,655.386,655.887,656.137,657.49,space,1.348,,657.49,37,78,658.491,658.491,658.493,,,,0,7,7,7,1,25,140,,,,,,,,
,,6026891e02f12c316ba8bcbb,65af541f996cbb0023daa0eb,2024-01-23_06h52.35.127,bars,2023.2.3,Win32,144.092219,657b66ea316d21385b68909f,,,,,,,,,,,658.493,659.491,,,659.991,660.241,,122,122,,,,,,,,,,,,,,,,bars/007.png,bars/mask008.png,,,,,,,,,,,,0,1,,,,,,,5,1,3,1,,,,,,,,,,,659.491,659.991,660.241,664.893,space,4.649,,664.893,53,67,665.894,665.894,665.895,,,,0,8,8,8,1,175,55,,,,,,,,
,,6026891e02f12c316ba8bcbb,65af541f996cbb0023daa0eb,2024-01-23_06h52.35.127,bars,2023.2.3,Win32,144.092219,657b66ea316d21385b68909f,,,,,,,,,,,665.895,666.894,,,667.394,667.644,,171,-9,,,,,,,,,,,,,,,,bars/020.png,bars/mask001.png,,,,,,,,,,,,5,2,,,,,,,3,3,2,5,,,,,,,,,,,666.894,667.394,667.644,675.006,space,7.357,,675.006,56,1,676.006,676.006,676.009,,,,0,9,9,9,1,115,170,,,,,,,,
,,6026891e02f12c316ba8bcbb,65af541f996cbb0023daa0eb,2024-01-23_06h52.35.127,bars,2023.2.3,Win32,144.092219,657b66ea316d21385b68909f,,,,,,,,,,,676.009,677.008,,,677.506,677.755,,127,127,,,,,,,,,,,,,,,,bars/005.png,bars/mask004.png,,,,,,,,,,,,0,2,,,,,,,1,1,0,0,,,,,,,,,,,677.008,677.505,677.755,678.263,space,0.503,,678.263,63,13,679.262,679.262,679.263,,,,0,10,10,10,1,10,140,,,,,,,,
,,6026891e02f12c316ba8bcbb,65af541f996cbb0023daa0eb,2024-01-23_06h52.35.127,bars,2023.2.3,Win32,144.092219,657b66ea316d21385b68909f,,,,,,,,,,,679.263,680.262,,,680.762,681.012,,157,-23,,,,,,,,,,,,,,,,bars/000.png,bars/mask003.png,,,,,,,,,,,,0,2,,,,,,,3,0,3,0,,,,,,,,,,,680.262,680.762,681.012,688.575,space,7.557,,688.575,63,12,689.574,689.574,689.576,,,,0,11,11,11,1,40,145,,,,,,,,
,,6026891e02f12c316ba8bcbb,65af541f996cbb0023daa0eb,2024-01-23_06h52.35.127,bars,2023.2.3,Win32,144.092219,657b66ea316d21385b68909f,,,,,,,,,,,689.576,690.575,,,691.075,691.325,,30,210,,,,,,,,,,,,,,,,bars/007.png,bars/mask009.png,,,,,,,,,,,,0,2,,,,,,,5,0,6,0,,,,,,,,,,,690.575,691.075,691.325,695.297,space,3.966,,695.297,35,25,696.298,696.298,696.299,,,,0,12,12,12,1,175,55,,,,,,,,
,,6026891e02f12c316ba8bcbb,65af541f996cbb0023daa0eb,2024-01-23_06h52.35.127,bars,2023.2.3,Win32,144.092219,657b66ea316d21385b68909f,,,,,,,,,,,696.299,697.297,,,697.798,698.047,,9,9,,,,,,,,,,,,,,,,bars/048.png,bars/mask009.png,,,,,,,,,,,,1,2,,,,,,,7,2,7,2,,,,,,,,,,,697.297,697.798,698.047,699.408,space,1.355,,699.409,41,14,700.409,700.409,700.411,,,,0,13,13,13,1,50,175,,,,,,,,
,,6026891e02f12c316ba8bcbb,65af541f996cbb0023daa0eb,2024-01-23_06h52.35.127,bars,2023.2.3,Win32,144.092219,657b66ea316d21385b68909f,,,,,,,,,,,700.411,701.408,,,701.908,702.158,,104,104,,,,,,,,,,,,,,,,bars/001.png,bars/mask004.png,,,,,,,,,,,,2,2,,,,,,,5,4,6,5,,,,,,,,,,,701.408,701.908,702.159,703.339,space,1.179,,703.339,26,19,704.339,704.34,704.342,,,,0,14,14,14,1,130,85,,,,,,,,
,,6026891e02f12c316ba8bcbb,65af541f996cbb0023daa0eb,2024-01-23_06h52.35.127,bars,2023.2.3,Win32,144.092219,657b66ea316d21385b68909f,,,,,,,,,,,704.342,705.339,,,705.84,706.089,,12,12,,,,,,,,,,,,,,,,bars/014.png,bars/mask002.png,,,,,,,,,,,,1,2,,,,,,,3,2,3,1,,,,,,,,,,,705.339,705.84,706.089,712.305,space,6.208,,712.305,68,12,713.304,713.304,713.306,,,,0,15,15,15,1,80,0,,,,,,,,
,,6026891e02f12c316ba8bcbb,65af541f996cbb0023daa0eb,2024-01-23_06h52.35.127,bars,2023.2.3,Win32,144.092219,657b66ea316d21385b68909f,,,,,,,,,,,713.306,714.305,,,714.804,715.054,,26,26,,,,,,,,,,,,,,,,bars/027.png,bars/mask000.png,,,,,,,,,,,,0,2,,,,,,,1,0,3,0,,,,,,,,,,,714.305,714.804,715.054,719.798,space,4.739,,719.798,84,24,720.797,720.798,720.8,,,,0,16,16,16,1,110,50,,,,,,,,
,,6026891e02f12c316ba8bcbb,65af541f996cbb0023daa0eb,2024-01-23_06h52.35.127,bars,2023.2.3,Win32,144.092219,657b66ea316d21385b68909f,,,,,,,,,,,720.8,721.797,,,722.297,722.547,,115,115,,,,,,,,,,,,,,,,bars/006.png,bars/mask006.png,,,,,,,,,,,,1,2,,,,,,,0,2,0,1,,,,,,,,,,,721.797,722.297,722.548,728.971,space,6.42,,728.972,80,15,729.971,729.971,729.973,,,,0,17,17,17,1,35,100,,,,,,,,
,,6026891e02f12c316ba8bcbb,65af541f996cbb0023daa0eb,2024-01-23_06h52.35.127,bars,2023.2.3,Win32,144.092219,657b66ea316d21385b68909f,,,,,,,,,,,729.973,730.971,,,731.472,731.721,,118,118,,,,,,,,,,,,,,,,bars/011.png,bars/mask006.png,,,,,,,,,,,,0,2,,,,,,,2,4,2,5,,,,,,,,,,,730.971,731.472,731.721,734.66,space,2.934,,734.66,42,33,735.659,735.659,735.661,,,,0,18,18,18,1,160,85,,,,,,,,
,,6026891e02f12c316ba8bcbb,65af541f996cbb0023daa0eb,2024-01-23_06h52.35.127,bars,2023.2.3,Win32,144.092219,657b66ea316d21385b68909f,,,,,,,,,,,735.662,736.66,,,737.159,737.409,,107,107,,,,,,,,,,,,,,,,bars/026.png,bars/mask001.png,,,,,,,,,,,,1,2,,,,,,,0,2,0,2,,,,,,,,,,,736.66,737.159,737.409,741.764,space,4.35,,741.764,72,22,742.763,742.763,742.765,,,,0,19,19,19,1,35,85,,,,,,,,
,,6026891e02f12c316ba8bcbb,65af541f996cbb0023daa0eb,2024-01-23_06h52.35.127,bars,2023.2.3,Win32,144.092219,657b66ea316d21385b68909f,,,,,,,,,,,742.766,743.764,,,744.264,744.514,,11,11,,,,,,,,,,,,,,,,bars/029.png,bars/mask004.png,,,,,,,,,,,,0,2,,,,,,,0,4,0,4,,,,,,,,,,,743.764,744.264,744.514,745.771,space,1.254,,745.771,79,34,746.77,746.77,746.771,,,,0,20,20,20,1,90,45,,,,,,,,
,,6026891e02f12c316ba8bcbb,65af541f996cbb0023daa0eb,2024-01-23_06h52.35.127,bars,2023.2.3,Win32,144.092219,657b66ea316d21385b68909f,,,,,,,,,,,746.772,747.77,,,748.271,748.521,,110,110,,,,,,,,,,,,,,,,bars/012.png,bars/mask003.png,,,,,,,,,,,,0,1,,,,,,,0,6,1,7,,,,,,,,,,,747.77,748.271,748.521,750.923,space,2.399,,750.923,20,85,751.923,751.923,751.926,,,,0,21,21,21,1,90,15,,,,,,,,
,,6026891e02f12c316ba8bcbb,65af541f996cbb0023daa0eb,2024-01-23_06h52.35.127,bars,2023.2.3,Win32,144.092219,657b66ea316d21385b68909f,,,,,,,,,,,751.926,752.923,,,753.423,753.674,,37,217,,,,,,,,,,,,,,,,bars/019.png,bars/mask004.png,,,,,,,,,,,,0,1,,,,,,,0,4,0,5,,,,,,,,,,,752.923,753.423,753.674,759.952,space,6.271,,759.952,8,68,760.951,760.951,760.952,,,,0,22,22,22,1,45,105,,,,,,,,
,,6026891e02f12c316ba8bcbb,65af541f996cbb0023daa0eb,2024-01-23_06h52.35.127,bars,2023.2.3,Win32,144.092219,657b66ea316d21385b68909f,,,,,,,,,,,760.953,761.952,,,762.451,762.702,,133,133,,,,,,,,,,,,,,,,bars/000.png,bars/mask002.png,,,,,,,,,,,,4,2,,,,,,,0,6,1,6,,,,,,,,,,,761.952,762.451,762.702,765.903,space,3.195,,765.903,87,12,766.903,766.903,766.907,,,,0,23,23,23,1,40,145,,,,,,,,
,,6026891e02f12c316ba8bcbb,65af541f996cbb0023daa0eb,2024-01-23_06h52.35.127,bars,2023.2.3,Win32,144.092219,657b66ea316d21385b68909f,,,,,,,,,,,766.908,767.903,,,768.403,768.653,,136,136,,,,,,,,,,,,,,,,bars/005.png,bars/mask008.png,,,,,,,,,,,,5,2,,,,,,,0,4,1,6,,,,,,,,,,,767.903,768.403,768.653,775.271,space,6.611,,775.271,54,4,776.272,776.272,776.272,,,,0,24,24,24,1,10,140,,,,,,,,
,,6026891e02f12c316ba8bcbb,65af541f996cbb0023daa0eb,2024-01-23_06h52.35.127,bars,2023.2.3,Win32,144.092219,657b66ea316d21385b68909f,,,,,,,,,,,776.272,777.271,,,777.771,778.021,,0,0,,,,,,,,,,,,,,,,bars/020.png,bars/mask002.png,,,,,,,,,,,,1,2,,,,,,,0,2,0,1,,,,,,,,,,,777.271,777.771,778.021,781.75,space,3.723,,781.75,65,10,782.751,782.751,782.752,,,,0,25,25,25,1,115,170,,,,,,,,
,,6026891e02f12c316ba8bcbb,65af541f996cbb0023daa0eb,2024-01-23_06h52.35.127,bars,2023.2.3,Win32,144.092219,657b66ea316d21385b68909f,,,,,,,,,,,782.752,783.751,,,784.25,784.501,,103,103,,,,,,,,,,,,,,,,bars/001.png,bars/mask009.png,,,,,,,,,,,,2,2,,,,,,,2,4,4,4,,,,,,,,,,,783.751,784.25,784.501,787.571,space,3.068,,787.571,27,18,788.57,788.57,788.571,,,,0,26,26,26,1,130,85,,,,,,,,
,,6026891e02f12c316ba8bcbb,65af541f996cbb0023daa0eb,2024-01-23_06h52.35.127,bars,2023.2.3,Win32,144.092219,657b66ea316d21385b68909f,,,,,,,,,,,788.571,789.57,,,790.07,790.32,,110,110,,,,,,,,,,,,,,,,bars/000.png,bars/mask009.png,,,,,,,,,,,,0,2,,,,,,,0,2,0,5,,,,,,,,,,,789.57,790.07,790.32,794.348,space,4.022,,794.348,70,35,795.348,795.348,795.349,,,,0,27,27,27,1,40,145,,,,,,,,
,,6026891e02f12c316ba8bcbb,65af541f996cbb0023daa0eb,2024-01-23_06h52.35.127,bars,2023.2.3,Win32,144.092219,657b66ea316d21385b68909f,,,,,,,,,,,795.35,796.348,,,796.848,797.098,,19,199,,,,,,,,,,,,,,,,bars/004.png,bars/mask008.png,,,,,,,,,,,,1,1,,,,,,,2,4,1,4,,,,,,,,,,,796.348,796.848,797.098,802.967,space,5.86,,802.967,6,74,803.967,803.967,803.971,,,,0,28,28,28,1,25,125,,,,,,,,
,,6026891e02f12c316ba8bcbb,65af541f996cbb0023daa0eb,2024-01-23_06h52.35.127,bars,2023.2.3,Win32,144.092219,657b66ea316d21385b68909f,,,,,,,,,,,803.971,804.966,,,805.467,805.716,,111,111,,,,,,,,,,,,,,,,bars/024.png,bars/mask000.png,,,,,,,,,,,,0,1,,,,,,,0,2,0,3,,,,,,,,,,,804.966,805.467,805.716,808.641,space,2.922,,808.641,9,59,809.64,809.64,809.641,,,,0,29,29,29,1,120,170,,,,,,,,
,,6026891e02f12c316ba8bcbb,65af541f996cbb0023daa0eb,2024-01-23_06h52.35.127,bars,2023.2.3,Win32,144.092219,657b66ea316d21385b68909f,,,,,,,,,,,809.641,810.64,,,811.14,811.39,,8,8,,,,,,,,,,,,,,,,bars/040.png,bars/mask001.png,,,,,,,,,,,,5,2,,,,,,,0,4,0,6,,,,,,,,,,,810.64,811.14,811.39,817.891,space,6.496,,817.891,48,3,818.89,818.89,818.893,,,,0,30,30,30,1,140,5,,,,,,,,
,,6026891e02f12c316ba8bcbb,65af541f996cbb0023daa0eb,2024-01-23_06h52.35.127,bars,2023.2.3,Win32,144.092219,657b66ea316d21385b68909f,,,,,,,,,,,818.893,819.891,,,820.39,820.64,,96,96,,,,,,,,,,,,,,,,bars/046.png,bars/mask003.png,,,,,,,,,,,,1,2,,,,,,,0,2,1,1,,,,,,,,,,,819.891,820.39,820.64,823.627,space,2.981,,823.627,59,11,824.627,824.627,824.628,,,,0,31,31,31,1,155,85,,,,,,,,
,,6026891e02f12c316ba8bcbb,65af541f996cbb0023daa0eb,2024-01-23_06h52.35.127,bars,2023.2.3,Win32,144.092219,657b66ea316d21385b68909f,,,,,,,,,,,824.628,825.626,,,826.127,826.376,,175,175,,,,,,,,,,,,,,,,bars/045.png,bars/mask003.png,,,,,,,,,,,,3,2,,,,,,,2,4,1,5,,,,,,,,,,,825.626,826.127,826.376,827.627,space,1.245,,827.627,75,15,828.627,828.627,828.628,,,,0,32,32,32,1,100,10,,,,,,,,
,,6026891e02f12c316ba8bcbb,65af541f996cbb0023daa0eb,2024-01-23_06h52.35.127,bars,2023.2.3,Win32,144.092219,657b66ea316d21385b68909f,,,,,,,,,,,828.628,829.627,,,830.127,830.377,,69,69,,,,,,,,,,,,,,,,bars/047.png,bars/mask009.png,,,,,,,,,,,,4,2,,,,,,,4,2,2,4,,,,,,,,,,,829.627,830.127,830.377,835.558,space,5.175,,835.558,54,1,836.558,836.558,836.56,,,,0,33,33,33,1,15,70,,,,,,,,
,,6026891e02f12c316ba8bcbb,65af541f996cbb0023daa0eb,2024-01-23_06h52.35.127,bars,2023.2.3,Win32,144.092219,657b66ea316d21385b68909f,,,,,,,,,,,836.56,837.558,,,838.058,838.307,,27,27,,,,,,,,,,,,,,,,bars/012.png,bars/mask002.png,,,,,,,,,,,,2,2,,,,,,,2,4,0,3,,,,,,,,,,,837.558,838.058,838.308,841.176,space,2.866,,841.176,63,12,842.176,842.176,842.177,,,,0,34,34,34,1,90,15,,,,,,,,
,,6026891e02f12c316ba8bcbb,65af541f996cbb0023daa0eb,2024-01-23_06h52.35.127,bars,2023.2.3,Win32,144.092219,657b66ea316d21385b68909f,,,,,,,,,,,842.177,843.176,,,843.676,843.926,,11,191,,,,,,,,,,,,,,,,bars/014.png,bars/mask004.png,,,,,,,,,,,,4,2,,,,,,,0,6,0,6,,,,,,,,,,,843.176,843.676,843.926,848.468,space,4.534,,848.468,69,11,849.467,849.467,849.469,,,,0,35,35,35,1,80,0,,,,,,,,
,,6026891e02f12c316ba8bcbb,65af541f996cbb0023daa0eb,2024-01-23_06h52.35.127,bars,2023.2.3,Win32,144.092219,657b66ea316d21385b68909f,,,,,,,,,,,849.469,850.467,,,850.967,851.217,,161,161,,,,,,,,,,,,,,,,bars/000.png,bars/mask001.png,,,,,,,,,,,,1,2,,,,,,,0,4,0,3,,,,,,,,,,,850.468,850.967,851.217,852.099,space,0.876,,852.099,59,16,853.1,853.1,853.101,,,,0,36,36,36,1,40,145,,,,,,,,
,,6026891e02f12c316ba8bcbb,65af541f996cbb0023daa0eb,2024-01-23_06h52.35.127,bars,2023.2.3,Win32,144.092219,657b66ea316d21385b68909f,,,,,,,,,,,853.101,854.1,,,854.599,854.85,,103,103,,,,,,,,,,,,,,,,bars/037.png,bars/mask001.png,,,,,,,,,,,,5,2,,,,,,,0,6,0,5,,,,,,,,,,,854.1,854.599,854.85,863.329,space,8.476,,863.329,47,2,864.329,864.329,864.33,,,,0,37,37,37,1,150,105,,,,,,,,
,,6026891e02f12c316ba8bcbb,65af541f996cbb0023daa0eb,2024-01-23_06h52.35.127,bars,2023.2.3,Win32,144.092219,657b66ea316d21385b68909f,,,,,,,,,,,864.33,865.329,,,865.829,866.079,,24,24,,,,,,,,,,,,,,,,bars/036.png,bars/mask008.png,,,,,,,,,,,,5,2,,,,,,,0,4,0,6,,,,,,,,,,,865.329,865.829,866.079,869.232,space,3.149,,869.232,59,4,870.232,870.232,870.234,,,,0,38,38,38,1,145,20,,,,,,,,
,,6026891e02f12c316ba8bcbb,65af541f996cbb0023daa0eb,2024-01-23_06h52.35.127,bars,2023.2.3,Win32,144.092219,657b66ea316d21385b68909f,,,,,,,,,,,870.234,871.232,,,871.732,871.982,,68,68,,,,,,,,,,,,,,,,bars/030.png,bars/mask005.png,,,,,,,,,,,,2,2,,,,,,,2,2,1,2,,,,,,,,,,,871.232,871.732,871.982,878.572,space,6.583,,878.572,72,3,879.573,879.573,879.573,,,,0,39,39,39,1,140,65,,,,,,,,
,,6026891e02f12c316ba8bcbb,65af541f996cbb0023daa0eb,2024-01-23_06h52.35.127,bars,2023.2.3,Win32,144.092219,657b66ea316d21385b68909f,,,,,,,,,,,879.573,880.572,,,881.072,881.322,,179,-1,,,,,,,,,,,,,,,,bars/014.png,bars/mask009.png,,,,,,,,,,,,3,2,,,,,,,4,4,4,3,,,,,,,,,,,880.572,881.072,881.322,882.392,space,1.067,,882.392,81,1,883.392,883.392,883.394,,,,0,40,40,40,1,80,0,,,,,,,,
,,6026891e02f12c316ba8bcbb,65af541f996cbb0023daa0eb,2024-01-23_06h52.35.127,bars,2023.2.3,Win32,144.092219,657b66ea316d21385b68909f,,,,,,,,,,,883.394,884.392,,,884.892,885.142,,72,72,,,,,,,,,,,,,,,,bars/035.png,bars/mask001.png,,,,,,,,,,,,2,2,,,,,,,6,2,5,3,,,,,,,,,,,884.392,884.892,885.142,891.128,space,5.982,,891.128,77,12,892.128,892.128,892.129,,,,0,41,41,41,1,175,60,,,,,,,,
,,6026891e02f12c316ba8bcbb,65af541f996cbb0023daa0eb,2024-01-23_06h52.35.127,bars,2023.2.3,Win32,144.092219,657b66ea316d21385b68909f,,,,,,,,,,,892.129,893.128,,,893.628,893.878,,167,167,,,,,,,,,,,,,,,,bars/024.png,bars/mask005.png,,,,,,,,,,,,3,2,,,,,,,4,4,4,3,,,,,,,,,,,893.128,893.628,893.878,900.289,space,6.406,,900.289,47,3,901.289,901.289,901.291,,,,0,42,42,42,1,120,170,,,,,,,,
,,6026891e02f12c316ba8bcbb,65af541f996cbb0023daa0eb,2024-01-23_06h52.35.127,bars,2023.2.3,Win32,144.092219,657b66ea316d21385b68909f,,,,,,,,,,,901.291,902.288,,,902.789,903.038,,136,136,,,,,,,,,,,,,,,,bars/015.png,bars/mask008.png,,,,,,,,,,,,1,2,,,,,,,2,6,4,6,,,,,,,,,,,902.288,902.789,903.038,903.991,space,0.95,,903.991,26,24,904.99,904.99,904.991,,,,0,43,43,43,1,110,160,,,,,,,,
,,6026891e02f12c316ba8bcbb,65af541f996cbb0023daa0eb,2024-01-23_06h52.35.127,bars,2023.2.3,Win32,144.092219,657b66ea316d21385b68909f,,,,,,,,,,,904.991,905.99,,,906.489,906.74,,116,116,,,,,,,,,,,,,,,,bars/007.png,bars/mask000.png,,,,,,,,,,,,0,1,,,,,,,4,4,5,3,,,,,,,,,,,905.99,906.489,906.74,909.482,space,2.738,,909.482,59,61,910.482,910.482,910.486,,,,0,44,44,44,1,175,55,,,,,,,,
,,6026891e02f12c316ba8bcbb,65af541f996cbb0023daa0eb,2024-01-23_06h52.35.127,bars,2023.2.3,Win32,144.092219,657b66ea316d21385b68909f,,,,,,,,,,,910.486,911.483,,,911.983,912.232,,54,54,,,,,,,,,,,,,,,,bars/047.png,bars/mask008.png,,,,,,,,,,,,3,2,,,,,,,6,6,5,6,,,,,,,,,,,911.483,911.983,912.232,915.178,space,2.94,,915.178,39,16,916.177,916.177,916.179,,,,0,45,45,45,1,15,70,,,,,,,,
,,6026891e02f12c316ba8bcbb,65af541f996cbb0023daa0eb,2024-01-23_06h52.35.127,bars,2023.2.3,Win32,144.092219,657b66ea316d21385b68909f,,,,,,,,,,,916.18,917.177,,,917.678,917.927,,3,183,,,,,,,,,,,,,,,,bars/048.png,bars/mask007.png,,,,,,,,,,,,4,2,,,,,,,4,4,3,5,,,,,,,,,,,917.177,917.678,917.927,922.643,space,4.709,,922.643,47,8,923.643,923.643,923.644,,,,0,46,46,46,1,50,175,,,,,,,,
,,6026891e02f12c316ba8bcbb,65af541f996cbb0023daa0eb,2024-01-23_06h52.35.127,bars,2023.2.3,Win32,144.092219,657b66ea316d21385b68909f,,,,,,,,,,,923.644,924.643,,,925.143,925.393,,5,185,,,,,,,,,,,,,,,,bars/024.png,bars/mask006.png,,,,,,,,,,,,3,2,,,,,,,6,6,6,5,,,,,,,,,,,924.643,925.143,925.393,932.463,space,7.065,,932.463,65,15,933.462,933.462,933.465,,,,0,47,47,47,1,120,170,,,,,,,,
,,6026891e02f12c316ba8bcbb,65af541f996cbb0023daa0eb,2024-01-23_06h52.35.127,bars,2023.2.3,Win32,144.092219,657b66ea316d21385b68909f,,,,,,,,,,,933.465,934.463,,,934.963,935.213,,91,91,,,,,,,,,,,,,,,,bars/042.png,bars/mask006.png,,,,,,,,,,,,4,2,,,,,,,4,8,5,9,,,,,,,,,,,934.463,934.963,935.213,936.074,space,0.855,,936.074,54,16,937.074,937.074,937.075,,,,0,48,48,48,1,145,75,,,,,,,,
,,6026891e02f12c316ba8bcbb,65af541f996cbb0023daa0eb,2024-01-23_06h52.35.127,bars,2023.2.3,Win32,144.092219,657b66ea316d21385b68909f,,,,,,,,,,,937.075,938.074,,,938.574,938.823,,176,-4,,,,,,,,,,,,,,,,bars/040.png,bars/mask007.png,,,,,,,,,,,,7,2,,,,,,,2,10,2,10,,,,,,,,,,,938.074,938.574,938.823,942.31,space,3.483,,942.31,36,9,943.31,943.31,943.311,,,,0,49,49,49,1,140,5,,,,,,,,
,,6026891e02f12c316ba8bcbb,65af541f996cbb0023daa0eb,2024-01-23_06h52.35.127,bars,2023.2.3,Win32,144.092219,657b66ea316d21385b68909f,,,,,,,,,,,,,,,,,,,,,,,,,,,,,,,,,,,,,,,,,,,,,,,,,,,,,,,,,,,,,,,,,,,,,,,,,,,,,,,,,,,,,,,,,,,,,943.312,1003.312,0,1,1,2,1,sequence_tables/blk022.csv
,,6026891e02f12c316ba8bcbb,65af541f996cbb0023daa0eb,2024-01-23_06h52.35.127,bars,2023.2.3,Win32,144.092219,657b66ea316d21385b68909f,,,,,,,,,,,1103.154,1104.147,,,1104.647,1104.897,,47,47,,,,,,,,,,,,,,,,bars/019.png,bars/mask001.png,,,,,,,,,,,,7,1,,,,,,,7,6,8,7,,,,,,1003.313,1103.147,space,99.83,,1104.147,1104.647,1104.897,1108.182,space,3.278,,1108.182,2,58,1109.182,1109.182,1109.186,,,,0,0,0,0,1,45,105,,,,,,,,
,,6026891e02f12c316ba8bcbb,65af541f996cbb0023daa0eb,2024-01-23_06h52.35.127,bars,2023.2.3,Win32,144.092219,657b66ea316d21385b68909f,,,,,,,,,,,1109.186,1110.182,,,1110.681,1110.932,,102,102,,,,,,,,,,,,,,,,bars/023.png,bars/mask009.png,,,,,,,,,,,,2,2,,,,,,,5,4,7,3,,,,,,,,,,,1110.182,1110.681,1110.932,1114.709,space,3.771,,1114.709,82,13,1115.709,1115.709,1115.712,,,,0,1,1,1,1,20,115,,,,,,,,
,,6026891e02f12c316ba8bcbb,65af541f996cbb0023daa0eb,2024-01-23_06h52.35.127,bars,2023.2.3,Win32,144.092219,657b66ea316d21385b68909f,,,,,,,,,,,1115.712,1116.71,,,1117.21,1117.46,,56,56,,,,,,,,,,,,,,,,bars/021.png,bars/mask000.png,,,,,,,,,,,,1,2,,,,,,,3,2,2,2,,,,,,,,,,,1116.71,1117.21,1117.46,1120.814,space,3.347,,1120.814,81,14,1121.814,1121.814,1121.815,,,,0,2,2,2,1,155,70,,,,,,,,
,,6026891e02f12c316ba8bcbb,65af541f996cbb0023daa0eb,2024-01-23_06h52.35.127,bars,2023.2.3,Win32,144.092219,657b66ea316d21385b68909f,,,,,,,,,,,1121.815,1122.815,,,1123.315,1123.564,,165,165,,,,,,,,,,,,,,,,bars/044.png,bars/mask009.png,,,,,,,,,,,,0,2,,,,,,,1,0,0,0,,,,,,,,,,,1122.815,1123.315,1123.564,1128.023,space,4.452,,1128.023,90,10,1129.026,1129.026,1129.027,,,,0,3,3,3,1,75,155,,,,,,,,
,,6026891e02f12c316ba8bcbb,65af541f996cbb0023daa0eb,2024-01-23_06h52.35.127,bars,2023.2.3,Win32,144.092219,657b66ea316d21385b68909f,,,,,,,,,,,1129.027,1130.023,,,1130.522,1130.773,,84,264,,,,,,,,,,,,,,,,bars/046.png,bars/mask000.png,,,,,,,,,,,,0,2,,,,,,,3,0,4,0,,,,,,,,,,,1130.023,1130.522,1130.773,1137.863,space,7.086,,1137.864,71,1,1138.863,1138.863,1138.866,,,,0,4,4,4,1,155,85,,,,,,,,
,,6026891e02f12c316ba8bcbb,65af541f996cbb0023daa0eb,2024-01-23_06h52.35.127,bars,2023.2.3,Win32,144.092219,657b66ea316d21385b68909f,,,,,,,,,,,1138.867,1139.863,,,1140.363,1140.613,,30,30,,,,,,,,,,,,,,,,bars/036.png,bars/mask006.png,,,,,,,,,,,,1,2,,,,,,,1,2,2,1,,,,,,,,,,,1139.863,1140.363,1140.613,1145.794,space,5.174,,1145.794,65,10,1146.794,1146.794,1146.795,,,,0,5,5,5,1,145,20,,,,,,,,
,,6026891e02f12c316ba8bcbb,65af541f996cbb0023daa0eb,2024-01-23_06h52.35.127,bars,2023.2.3,Win32,144.092219,657b66ea316d21385b68909f,,,,,,,,,,,1146.795,1147.794,,,1148.294,1148.544,,77,77,,,,,,,,,,,,,,,,bars/038.png,bars/mask008.png,,,,,,,,,,,,4,2,,,,,,,0,4,0,5,,,,,,,,,,,1147.794,1148.294,1148.544,1151.28,space,2.731,,1151.28,88,7,1152.28,1152.28,1152.282,,,,0,6,6,6,1,165,70,,,,,,,,
,,6026891e02f12c316ba8bcbb,65af541f996cbb0023daa0eb,2024-01-23_06h52.35.127,bars,2023.2.3,Win32,144.092219,657b66ea316d21385b68909f,,,,,,,,,,,1152.282,1153.281,,,1153.78,1154.031,,81,81,,,,,,,,,,,,,,,,bars/041.png,bars/mask006.png,,,,,,,,,,,,4,2,,,,,,,2,6,1,5,,,,,,,,,,,1153.281,1153.78,1154.031,1157.648,space,3.612,,1157.648,61,4,1158.649,1158.649,1158.65,,,,0,7,7,7,1,20,85,,,,,,,,
,,6026891e02f12c316ba8bcbb,65af541f996cbb0023daa0eb,2024-01-23_06h52.35.127,bars,2023.2.3,Win32,144.092219,657b66ea316d21385b68909f,,,,,,,,,,,1158.65,1159.649,,,1160.148,1160.399,,103,103,,,,,,,,,,,,,,,,bars/041.png,bars/mask006.png,,,,,,,,,,,,1,2,,,,,,,4,4,3,2,,,,,,,,,,,1159.649,1160.148,1160.399,1164.448,space,4.044,,1164.448,83,18,1165.447,1165.447,1165.449,,,,0,8,8,8,1,20,85,,,,,,,,
,,6026891e02f12c316ba8bcbb,65af541f996cbb0023daa0eb,2024-01-23_06h52.35.127,bars,2023.2.3,Win32,144.092219,657b66ea316d21385b68909f,,,,,,,,,,,1165.449,1166.447,,,1166.947,1167.197,,132,132,,,,,,,,,,,,,,,,bars/043.png,bars/mask006.png,,,,,,,,,,,,1,2,,,,,,,2,2,2,1,,,,,,,,,,,1166.447,1166.947,1167.197,1169.267,space,2.063,,1169.267,78,2,1170.267,1170.267,1170.268,,,,0,9,9,9,1,30,130,,,,,,,,
,,6026891e02f12c316ba8bcbb,65af541f996cbb0023daa0eb,2024-01-23_06h52.35.127,bars,2023.2.3,Win32,144.092219,657b66ea316d21385b68909f,,,,,,,,,,,1170.268,1171.266,,,1171.766,1172.017,,110,110,,,,,,,,,,,,,,,,bars/006.png,bars/mask006.png,,,,,,,,,,,,2,2,,,,,,,0,4,0,3,,,,,,,,,,,1171.266,1171.766,1172.017,1176.579,space,4.557,,1176.58,75,10,1177.579,1177.579,1177.58,,,,0,10,10,10,1,35,100,,,,,,,,
,,6026891e02f12c316ba8bcbb,65af541f996cbb0023daa0eb,2024-01-23_06h52.35.127,bars,2023.2.3,Win32,144.092219,657b66ea316d21385b68909f,,,,,,,,,,,1177.581,1178.58,,,1179.08,1179.329,,134,134,,,,,,,,,,,,,,,,bars/049.png,bars/mask004.png,,,,,,,,,,,,2,2,,,,,,,0,6,1,6,,,,,,,,,,,1178.58,1179.08,1179.329,1183.996,space,4.66,,1183.996,26,19,1184.996,1184.996,1184.997,,,,0,11,11,11,1,160,115,,,,,,,,
,,6026891e02f12c316ba8bcbb,65af541f996cbb0023daa0eb,2024-01-23_06h52.35.127,bars,2023.2.3,Win32,144.092219,657b66ea316d21385b68909f,,,,,,,,,,,1184.998,1185.996,,,1186.496,1186.746,,159,-21,,,,,,,,,,,,,,,,bars/016.png,bars/mask009.png,,,,,,,,,,,,2,2,,,,,,,0,4,2,3,,,,,,,,,,,1185.996,1186.496,1186.746,1191.927,space,5.173,,1191.927,61,6,1192.927,1192.927,1192.928,,,,0,12,12,12,1,40,165,,,,,,,,
,,6026891e02f12c316ba8bcbb,65af541f996cbb0023daa0eb,2024-01-23_06h52.35.127,bars,2023.2.3,Win32,144.092219,657b66ea316d21385b68909f,,,,,,,,,,,1192.929,1193.927,,,1194.427,1194.677,,82,262,,,,,,,,,,,,,,,,bars/018.png,bars/mask009.png,,,,,,,,,,,,4,2,,,,,,,0,6,0,5,,,,,,,,,,,1193.927,1194.427,1194.677,1199.031,space,4.346,,1199.031,68,8,1200.031,1200.032,1200.033,,,,0,13,13,13,1,150,90,,,,,,,,
,,6026891e02f12c316ba8bcbb,65af541f996cbb0023daa0eb,2024-01-23_06h52.35.127,bars,2023.2.3,Win32,144.092219,657b66ea316d21385b68909f,,,,,,,,,,,1200.033,1201.031,,,1201.531,1201.781,,6,186,,,,,,,,,,,,,,,,bars/048.png,bars/mask007.png,,,,,,,,,,,,5,2,,,,,,,2,8,1,8,,,,,,,,,,,1201.031,1201.531,1201.781,1205.552,space,3.764,,1205.552,44,11,1206.552,1206.552,1206.554,,,,0,14,14,14,1,50,175,,,,,,,,
,,6026891e02f12c316ba8bcbb,65af541f996cbb0023daa0eb,2024-01-23_06h52.35.127,bars,2023.2.3,Win32,144.092219,657b66ea316d21385b68909f,,,,,,,,,,,1206.554,1207.553,,,1208.052,1208.302,,158,-22,,,,,,,,,,,,,,,,bars/003.png,bars/mask000.png,,,,,,,,,,,,2,2,,,,,,,0,6,1,5,,,,,,,,,,,1207.553,1208.052,1208.302,1211.296,space,2.987,,1211.296,47,18,1212.295,1212.295,1212.296,,,,0,15,15,15,1,25,140,,,,,,,,
,,6026891e02f12c316ba8bcbb,65af541f996cbb0023daa0eb,2024-01-23_06h52.35.127,bars,2023.2.3,Win32,144.092219,657b66ea316d21385b68909f,,,,,,,,,,,1212.297,1213.296,,,1213.796,1214.045,,130,130,,,,,,,,,,,,,,,,bars/028.png,bars/mask003.png,,,,,,,,,,,,6,2,,,,,,,0,8,1,9,,,,,,,,,,,1213.296,1213.796,1214.045,1215.9,space,1.85,,1215.9,85,10,1216.9,1216.9,1216.9,,,,0,16,16,16,1,45,120,,,,,,,,
,,6026891e02f12c316ba8bcbb,65af541f996cbb0023daa0eb,2024-01-23_06h52.35.127,bars,2023.2.3,Win32,144.092219,657b66ea316d21385b68909f,,,,,,,,,,,1216.901,1217.9,,,1218.4,1218.649,,137,137,,,,,,,,,,,,,,,,bars/028.png,bars/mask006.png,,,,,,,,,,,,4,2,,,,,,,2,10,1,10,,,,,,,,,,,1217.9,1218.4,1218.649,1224.191,space,5.537,,1224.191,88,17,1225.191,1225.191,1225.192,,,,0,17,17,17,1,45,120,,,,,,,,
,,6026891e02f12c316ba8bcbb,65af541f996cbb0023daa0eb,2024-01-23_06h52.35.127,bars,2023.2.3,Win32,144.092219,657b66ea316d21385b68909f,,,,,,,,,,,1225.192,1226.192,,,1226.691,1226.941,,11,11,,,,,,,,,,,,,,,,bars/014.png,bars/mask006.png,,,,,,,,,,,,6,2,,,,,,,4,10,2,9,,,,,,,,,,,1226.192,1226.691,1226.941,1229.185,space,2.236,,1229.185,69,11,1230.185,1230.185,1230.186,,,,0,18,18,18,1,80,0,,,,,,,,
,,6026891e02f12c316ba8bcbb,65af541f996cbb0023daa0eb,2024-01-23_06h52.35.127,bars,2023.2.3,Win32,144.092219,657b66ea316d21385b68909f,,,,,,,,,,,1230.186,1231.185,,,1231.685,1231.935,,80,80,,,,,,,,,,,,,,,,bars/038.png,bars/mask007.png,,,,,,,,,,,,7,2,,,,,,,2,10,3,10,,,,,,,,,,,1231.185,1231.685,1231.935,1236.866,space,4.925,,1236.866,85,10,1237.865,1237.865,1237.867,,,,0,19,19,19,1,165,70,,,,,,,,
,,6026891e02f12c316ba8bcbb,65af541f996cbb0023daa0eb,2024-01-23_06h52.35.127,bars,2023.2.3,Win32,144.092219,657b66ea316d21385b68909f,,,,,,,,,,,1237.868,1238.866,,,1239.365,1239.616,,106,106,,,,,,,,,,,,,,,,bars/025.png,bars/mask008.png,,,,,,,,,,,,0,1,,,,,,,0,8,0,8,,,,,,,,,,,1238.866,1239.365,1239.616,1242.671,space,3.05,,1242.671,1,66,1243.671,1243.672,1243.674,,,,0,20,20,20,1,105,40,,,,,,,,
,,6026891e02f12c316ba8bcbb,65af541f996cbb0023daa0eb,2024-01-23_06h52.35.127,bars,2023.2.3,Win32,144.092219,657b66ea316d21385b68909f,,,,,,,,,,,1243.674,1244.671,,,1245.171,1245.421,,64,64,,,,,,,,,,,,,,,,bars/034.png,bars/mask004.png,,,,,,,,,,,,10,2,,,,,,,0,10,3,10,,,,,,,,,,,1244.671,1245.171,1245.421,1250.942,space,5.518,,1250.942,61,1,1251.943,1251.943,1251.945,,,,0,21,21,21,1,125,65,,,,,,,,
,,6026891e02f12c316ba8bcbb,65af541f996cbb0023daa0eb,2024-01-23_06h52.35.127,bars,2023.2.3,Win32,144.092219,657b66ea316d21385b68909f,,,,,,,,,,,1251.945,1252.942,,,1253.442,1253.692,,69,69,,,,,,,,,,,,,,,,bars/001.png,bars/mask003.png,,,,,,,,,,,,4,2,,,,,,,2,10,3,9,,,,,,,,,,,1252.942,1253.442,1253.692,1255.727,space,2.031,,1255.728,61,16,1256.727,1256.727,1256.728,,,,0,22,22,22,1,130,85,,,,,,,,
,,6026891e02f12c316ba8bcbb,65af541f996cbb0023daa0eb,2024-01-23_06h52.35.127,bars,2023.2.3,Win32,144.092219,657b66ea316d21385b68909f,,,,,,,,,,,1256.728,1257.727,,,1258.226,1258.477,,118,118,,,,,,,,,,,,,,,,bars/011.png,bars/mask009.png,,,,,,,,,,,,0,2,,,,,,,0,8,0,8,,,,,,,,,,,1257.727,1258.226,1258.477,1262.047,space,3.566,,1262.047,42,33,1263.046,1263.046,1263.048,,,,0,23,23,23,1,160,85,,,,,,,,
,,6026891e02f12c316ba8bcbb,65af541f996cbb0023daa0eb,2024-01-23_06h52.35.127,bars,2023.2.3,Win32,144.092219,657b66ea316d21385b68909f,,,,,,,,,,,1263.049,1264.047,,,1264.546,1264.796,,9,9,,,,,,,,,,,,,,,,bars/022.png,bars/mask007.png,,,,,,,,,,,,6,2,,,,,,,2,10,1,10,,,,,,,,,,,1264.047,1264.546,1264.796,1270.54,space,5.737,,1270.54,86,11,1271.54,1271.54,1271.543,,,,0,24,24,24,1,95,20,,,,,,,,
,,6026891e02f12c316ba8bcbb,65af541f996cbb0023daa0eb,2024-01-23_06h52.35.127,bars,2023.2.3,Win32,144.092219,657b66ea316d21385b68909f,,,,,,,,,,,1271.543,1272.54,,,1273.04,1273.289,,38,38,,,,,,,,,,,,,,,,bars/017.png,bars/mask004.png,,,,,,,,,,,,6,2,,,,,,,4,8,3,8,,,,,,,,,,,1272.54,1273.04,1273.289,1275.345,space,2.05,,1275.345,73,7,1276.345,1276.345,1276.346,,,,0,25,25,25,1,145,45,,,,,,,,
,,6026891e02f12c316ba8bcbb,65af541f996cbb0023daa0eb,2024-01-23_06h52.35.127,bars,2023.2.3,Win32,144.092219,657b66ea316d21385b68909f,,,,,,,,,,,1276.347,1277.345,,,1277.845,1278.095,,113,113,,,,,,,,,,,,,,,,bars/037.png,bars/mask000.png,,,,,,,,,,,,7,2,,,,,,,6,10,6,9,,,,,,,,,,,1277.346,1277.845,1278.095,1282.568,space,4.47,,1282.568,37,8,1283.568,1283.568,1283.569,,,,0,26,26,26,1,150,105,,,,,,,,
,,6026891e02f12c316ba8bcbb,65af541f996cbb0023daa0eb,2024-01-23_06h52.35.127,bars,2023.2.3,Win32,144.092219,657b66ea316d21385b68909f,,,,,,,,,,,1283.57,1284.568,,,1285.068,1285.318,,92,92,,,,,,,,,,,,,,,,bars/021.png,bars/mask008.png,,,,,,,,,,,,3,2,,,,,,,4,10,5,10,,,,,,,,,,,1284.568,1285.068,1285.318,1290.214,space,4.89,,1290.214,63,22,1291.214,1291.214,1291.215,,,,0,27,27,27,1,155,70,,,,,,,,
,,6026891e02f12c316ba8bcbb,65af541f996cbb0023daa0eb,2024-01-23_06h52.35.127,bars,2023.2.3,Win32,144.092219,657b66ea316d21385b68909f,,,,,,,,,,,1291.215,1292.214,,,1292.714,1292.964,,173,-7,,,,,,,,,,,,,,,,bars/044.png,bars/mask003.png,,,,,,,,,,,,4,2,,,,,,,6,10,7,10,,,,,,,,,,,1292.214,1292.714,1292.964,1298.687,space,5.714,,1298.687,82,18,1299.686,1299.686,1299.689,,,,0,28,28,28,1,75,155,,,,,,,,
,,6026891e02f12c316ba8bcbb,65af541f996cbb0023daa0eb,2024-01-23_06h52.35.127,bars,2023.2.3,Win32,144.092219,657b66ea316d21385b68909f,,,,,,,,,,,1299.689,1300.687,,,1301.187,1301.436,,1,1,,,,,,,,,,,,,,,,bars/036.png,bars/mask007.png,,,,,,,,,,,,3,2,,,,,,,4,10,4,9,,,,,,,,,,,1300.687,1301.187,1301.436,1303.423,space,1.98,,1303.423,36,19,1304.423,1304.423,1304.424,,,,0,29,29,29,1,145,20,,,,,,,,
,,6026891e02f12c316ba8bcbb,65af541f996cbb0023daa0eb,2024-01-23_06h52.35.127,bars,2023.2.3,Win32,144.092219,657b66ea316d21385b68909f,,,,,,,,,,,1304.424,1305.422,,,1305.922,1306.172,,59,59,,,,,,,,,,,,,,,,bars/034.png,bars/mask008.png,,,,,,,,,,,,6,2,,,,,,,6,8,6,8,,,,,,,,,,,1305.422,1305.922,1306.172,1308.256,space,2.077,,1308.256,66,6,1309.256,1309.256,1309.257,,,,0,30,30,30,1,125,65,,,,,,,,
,,6026891e02f12c316ba8bcbb,65af541f996cbb0023daa0eb,2024-01-23_06h52.35.127,bars,2023.2.3,Win32,144.092219,657b66ea316d21385b68909f,,,,,,,,,,,1309.257,1310.256,,,1310.756,1311.007,,117,117,,,,,,,,,,,,,,,,bars/049.png,bars/mask003.png,,,,,,,,,,,,6,2,,,,,,,4,6,5,6,,,,,,,,,,,1310.257,1310.756,1311.007,1313.888,space,2.874,,1313.888,43,2,1314.888,1314.888,1314.889,,,,0,31,31,31,1,160,115,,,,,,,,
,,6026891e02f12c316ba8bcbb,65af541f996cbb0023daa0eb,2024-01-23_06h52.35.127,bars,2023.2.3,Win32,144.092219,657b66ea316d21385b68909f,,,,,,,,,,,1314.889,1315.888,,,1316.389,1316.638,,33,33,,,,,,,,,,,,,,,,bars/031.png,bars/mask008.png,,,,,,,,,,,,6,2,,,,,,,2,8,1,6,,,,,,,,,,,1315.888,1316.389,1316.638,1317.957,space,1.313,,1317.957,87,2,1318.957,1318.957,1318.959,,,,0,32,32,32,1,120,35,,,,,,,,
,,6026891e02f12c316ba8bcbb,65af541f996cbb0023daa0eb,2024-01-23_06h52.35.127,bars,2023.2.3,Win32,144.092219,657b66ea316d21385b68909f,,,,,,,,,,,1318.959,1319.957,,,1320.458,1320.707,,158,158,,,,,,,,,,,,,,,,bars/023.png,bars/mask005.png,,,,,,,,,,,,0,1,,,,,,,0,6,0,6,,,,,,,,,,,1319.957,1320.458,1320.707,1322.958,space,2.245,,1322.958,42,43,1323.958,1323.958,1323.96,,,,0,33,33,33,1,20,115,,,,,,,,
,,6026891e02f12c316ba8bcbb,65af541f996cbb0023daa0eb,2024-01-23_06h52.35.127,bars,2023.2.3,Win32,144.092219,657b66ea316d21385b68909f,,,,,,,,,,,1323.96,1324.958,,,1325.457,1325.708,,57,57,,,,,,,,,,,,,,,,bars/029.png,bars/mask001.png,,,,,,,,,,,,5,2,,,,,,,2,8,3,9,,,,,,,,,,,1324.958,1325.457,1325.708,1329.951,space,4.236,,1329.951,33,12,1330.951,1330.952,1330.956,,,,0,34,34,34,1,90,45,,,,,,,,
,,6026891e02f12c316ba8bcbb,65af541f996cbb0023daa0eb,2024-01-23_06h52.35.127,bars,2023.2.3,Win32,144.092219,657b66ea316d21385b68909f,,,,,,,,,,,1330.956,1331.958,,,1332.458,1332.708,,48,48,,,,,,,,,,,,,,,,bars/010.png,bars/mask008.png,,,,,,,,,,,,7,2,,,,,,,0,10,0,9,,,,,,,,,,,1331.958,1332.458,1332.708,1337.681,space,4.966,,1337.681,63,7,1338.681,1338.681,1338.683,,,,0,35,35,35,1,165,55,,,,,,,,
,,6026891e02f12c316ba8bcbb,65af541f996cbb0023daa0eb,2024-01-23_06h52.35.127,bars,2023.2.3,Win32,144.092219,657b66ea316d21385b68909f,,,,,,,,,,,1338.683,1339.68,,,1340.181,1340.43,,147,147,,,,,,,,,,,,,,,,bars/000.png,bars/mask006.png,,,,,,,,,,,,8,2,,,,,,,0,8,0,9,,,,,,,,,,,1339.68,1340.181,1340.43,1343.152,space,2.715,,1343.152,73,2,1344.152,1344.152,1344.153,,,,0,36,36,36,1,40,145,,,,,,,,
,,6026891e02f12c316ba8bcbb,65af541f996cbb0023daa0eb,2024-01-23_06h52.35.127,bars,2023.2.3,Win32,144.092219,657b66ea316d21385b68909f,,,,,,,,,,,1344.154,1345.153,,,1345.653,1345.903,,98,98,,,,,,,,,,,,,,,,bars/011.png,bars/mask005.png,,,,,,,,,,,,3,2,,,,,,,2,6,3,6,,,,,,,,,,,1345.153,1345.653,1345.903,1347.618,space,1.707,,1347.618,62,13,1348.618,1348.618,1348.619,,,,0,37,37,37,1,160,85,,,,,,,,
,,6026891e02f12c316ba8bcbb,65af541f996cbb0023daa0eb,2024-01-23_06h52.35.127,bars,2023.2.3,Win32,144.092219,657b66ea316d21385b68909f,,,,,,,,,,,1348.619,1349.618,,,1350.118,1350.368,,1,1,,,,,,,,,,,,,,,,bars/040.png,bars/mask004.png,,,,,,,,,,,,6,2,,,,,,,4,8,4,7,,,,,,,,,,,1349.618,1350.118,1350.368,1353.743,space,3.371,,1353.743,41,4,1354.743,1354.743,1354.744,,,,0,38,38,38,1,140,5,,,,,,,,
,,6026891e02f12c316ba8bcbb,65af541f996cbb0023daa0eb,2024-01-23_06h52.35.127,bars,2023.2.3,Win32,144.092219,657b66ea316d21385b68909f,,,,,,,,,,,1354.744,1355.743,,,1356.244,1356.494,,128,128,,,,,,,,,,,,,,,,bars/004.png,bars/mask005.png,,,,,,,,,,,,5,2,,,,,,,2,6,1,6,,,,,,,,,,,1355.743,1356.244,1356.494,1359.264,space,2.766,,1359.264,77,3,1360.264,1360.265,1360.266,,,,0,39,39,39,1,25,125,,,,,,,,
,,6026891e02f12c316ba8bcbb,65af541f996cbb0023daa0eb,2024-01-23_06h52.35.127,bars,2023.2.3,Win32,144.092219,657b66ea316d21385b68909f,,,,,,,,,,,1360.266,1361.264,,,1361.765,1362.014,,102,102,,,,,,,,,,,,,,,,bars/023.png,bars/mask006.png,,,,,,,,,,,,2,2,,,,,,,0,4,0,3,,,,,,,,,,,1361.264,1361.765,1362.014,1363.049,space,1.029,,1363.049,82,13,1364.05,1364.05,1364.052,,,,0,40,40,40,1,20,115,,,,,,,,
,,6026891e02f12c316ba8bcbb,65af541f996cbb0023daa0eb,2024-01-23_06h52.35.127,bars,2023.2.3,Win32,144.092219,657b66ea316d21385b68909f,,,,,,,,,,,1364.052,1365.049,,,1365.549,1365.799,,101,101,,,,,,,,,,,,,,,,bars/011.png,bars/mask000.png,,,,,,,,,,,,2,2,,,,,,,2,6,1,5,,,,,,,,,,,1365.049,1365.549,1365.799,1369.744,space,3.942,,1369.744,59,16,1370.744,1370.744,1370.746,,,,0,41,41,41,1,160,85,,,,,,,,
,,6026891e02f12c316ba8bcbb,65af541f996cbb0023daa0eb,2024-01-23_06h52.35.127,bars,2023.2.3,Win32,144.092219,657b66ea316d21385b68909f,,,,,,,,,,,1370.746,1371.743,,,1372.244,1372.493,,146,146,,,,,,,,,,,,,,,,bars/003.png,bars/mask008.png,,,,,,,,,,,,6,2,,,,,,,4,8,4,7,,,,,,,,,,,1371.743,1372.244,1372.493,1376.778,space,4.279,,1376.778,59,6,1377.778,1377.778,1377.78,,,,0,42,42,42,1,25,140,,,,,,,,
,,6026891e02f12c316ba8bcbb,65af541f996cbb0023daa0eb,2024-01-23_06h52.35.127,bars,2023.2.3,Win32,144.092219,657b66ea316d21385b68909f,,,,,,,,,,,1377.78,1378.778,,,1379.279,1379.529,,94,-86,,,,,,,,,,,,,,,,bars/006.png,bars/mask001.png,,,,,,,,,,,,4,2,,,,,,,2,6,3,5,,,,,,,,,,,1378.778,1379.279,1379.529,1384.161,space,4.629,,1384.161,59,6,1385.16,1385.16,1385.162,,,,0,43,43,43,1,35,100,,,,,,,,
,,6026891e02f12c316ba8bcbb,65af541f996cbb0023daa0eb,2024-01-23_06h52.35.127,bars,2023.2.3,Win32,144.092219,657b66ea316d21385b68909f,,,,,,,,,,,1385.162,1386.161,,,1386.661,1386.911,,176,176,,,,,,,,,,,,,,,,bars/044.png,bars/mask000.png,,,,,,,,,,,,3,2,,,,,,,4,8,6,9,,,,,,,,,,,1386.161,1386.661,1386.911,1390.918,space,4.001,,1390.918,79,21,1391.918,1391.918,1391.919,,,,0,44,44,44,1,75,155,,,,,,,,
,,6026891e02f12c316ba8bcbb,65af541f996cbb0023daa0eb,2024-01-23_06h52.35.127,bars,2023.2.3,Win32,144.092219,657b66ea316d21385b68909f,,,,,,,,,,,1391.919,1392.918,,,1393.418,1393.668,,88,88,,,,,,,,,,,,,,,,bars/021.png,bars/mask006.png,,,,,,,,,,,,2,2,,,,,,,2,6,1,6,,,,,,,,,,,1392.918,1393.418,1393.668,1396.459,space,2.788,,1396.46,67,18,1397.46,1397.46,1397.463,,,,0,45,45,45,1,155,70,,,,,,,,
,,6026891e02f12c316ba8bcbb,65af541f996cbb0023daa0eb,2024-01-23_06h52.35.127,bars,2023.2.3,Win32,144.092219,657b66ea316d21385b68909f,,,,,,,,,,,1397.464,1398.46,,,1398.959,1399.209,,100,100,,,,,,,,,,,,,,,,bars/026.png,bars/mask002.png,,,,,,,,,,,,4,2,,,,,,,4,8,4,7,,,,,,,,,,,1398.46,1398.959,1399.209,1403.335,space,4.119,,1403.335,65,15,1404.334,1404.334,1404.335,,,,0,46,46,46,1,35,85,,,,,,,,
,,6026891e02f12c316ba8bcbb,65af541f996cbb0023daa0eb,2024-01-23_06h52.35.127,bars,2023.2.3,Win32,144.092219,657b66ea316d21385b68909f,,,,,,,,,,,1404.336,1405.335,,,1405.835,1406.085,,100,100,,,,,,,,,,,,,,,,bars/011.png,bars/mask006.png,,,,,,,,,,,,3,2,,,,,,,6,6,7,5,,,,,,,,,,,1405.335,1405.835,1406.085,1410.55,space,4.458,,1410.55,60,15,1411.55,1411.55,1411.551,,,,0,47,47,47,1,160,85,,,,,,,,
,,6026891e02f12c316ba8bcbb,65af541f996cbb0023daa0eb,2024-01-23_06h52.35.127,bars,2023.2.3,Win32,144.092219,657b66ea316d21385b68909f,,,,,,,,,,,1411.551,1412.55,,,1413.05,1413.3,,105,105,,,,,,,,,,,,,,,,bars/009.png,bars/mask006.png,,,,,,,,,,,,10,2,,,,,,,8,8,7,10,,,,,,,,,,,1412.55,1413.05,1413.3,1415.446,space,2.139,,1415.446,90,0,1416.446,1416.446,1416.447,,,,0,48,48,48,1,15,105,,,,,,,,
,,6026891e02f12c316ba8bcbb,65af541f996cbb0023daa0eb,2024-01-23_06h52.35.127,bars,2023.2.3,Win32,144.092219,657b66ea316d21385b68909f,,,,,,,,,,,1416.448,1417.446,,,1417.946,1418.195,,37,37,,,,,,,,,,,,,,,,bars/022.png,bars/mask006.png,,,,,,,,,,,,3,2,,,,,,,10,6,10,6,,,,,,,,,,,1417.446,1417.946,1418.196,1420.891,space,2.692,,1420.891,58,17,1421.891,1421.891,1421.891,,,,0,49,49,49,1,95,20,,,,,,,,
,,6026891e02f12c316ba8bcbb,65af541f996cbb0023daa0eb,2024-01-23_06h52.35.127,bars,2023.2.3,Win32,144.092219,657b66ea316d21385b68909f,,,,,,,,,,,,,,,,,,,,,,,,,,,,,,,,,,,,,,,,,,,,,,,,,,,,,,,,,,,,,,,,,,,,,,,,,,,,,,,,,,,,,,,,,,,,,1421.891,1481.892,0,2,2,4,1,sequence_tables/blk049.csv
,,6026891e02f12c316ba8bcbb,65af541f996cbb0023daa0eb,2024-01-23_06h52.35.127,bars,2023.2.3,Win32,144.092219,657b66ea316d21385b68909f,,,,,,,,,,,1606.553,1607.548,,,1608.048,1608.298,,177,-3,,,,,,,,,,,,,,,,bars/048.png,bars/mask008.png,,,,,,,,,,,,7,2,,,,,,,5,9,5,7,,,,,,1481.894,1606.548,space,124.649,,1607.548,1608.048,1608.298,1609.812,space,1.509,,1609.812,53,2,1610.812,1610.812,1610.813,,,,0,0,0,0,1,50,175,,,,,,,,
,,6026891e02f12c316ba8bcbb,65af541f996cbb0023daa0eb,2024-01-23_06h52.35.127,bars,2023.2.3,Win32,144.092219,657b66ea316d21385b68909f,,,,,,,,,,,1610.813,1611.812,,,1612.312,1612.562,,48,48,,,,,,,,,,,,,,,,bars/035.png,bars/mask003.png,,,,,,,,,,,,3,2,,,,,,,7,7,10,5,,,,,,,,,,,1611.812,1612.312,1612.562,1614.7,space,2.133,,1614.7,53,12,1615.701,1615.701,1615.702,,,,0,1,1,1,1,175,60,,,,,,,,
,,6026891e02f12c316ba8bcbb,65af541f996cbb0023daa0eb,2024-01-23_06h52.35.127,bars,2023.2.3,Win32,144.092219,657b66ea316d21385b68909f,,,,,,,,,,,1615.702,1616.701,,,1617.201,1617.451,,103,103,,,,,,,,,,,,,,,,bars/018.png,bars/mask001.png,,,,,,,,,,,,2,2,,,,,,,5,5,6,3,,,,,,,,,,,1616.701,1617.201,1617.451,1619.048,space,1.59,,1619.048,47,13,1620.048,1620.048,1620.049,,,,0,2,2,2,1,150,90,,,,,,,,
,,6026891e02f12c316ba8bcbb,65af541f996cbb0023daa0eb,2024-01-23_06h52.35.127,bars,2023.2.3,Win32,144.092219,657b66ea316d21385b68909f,,,,,,,,,,,1620.05,1621.048,,,1621.548,1621.798,,28,28,,,,,,,,,,,,,,,,bars/031.png,bars/mask008.png,,,,,,,,,,,,5,2,,,,,,,7,3,6,6,,,,,,,,,,,1621.048,1621.548,1621.798,1624.354,space,2.549,,1624.354,88,7,1625.353,1625.353,1625.355,,,,0,3,3,3,1,120,35,,,,,,,,
,,6026891e02f12c316ba8bcbb,65af541f996cbb0023daa0eb,2024-01-23_06h52.35.127,bars,2023.2.3,Win32,144.092219,657b66ea316d21385b68909f,,,,,,,,,,,1625.355,1626.354,,,1626.853,1627.104,,1,181,,,,,,,,,,,,,,,,bars/040.png,bars/mask007.png,,,,,,,,,,,,5,2,,,,,,,9,5,9,6,,,,,,,,,,,1626.354,1626.853,1627.104,1630.333,space,3.225,,1630.333,41,4,1631.333,1631.333,1631.336,,,,0,4,4,4,1,140,5,,,,,,,,
,,6026891e02f12c316ba8bcbb,65af541f996cbb0023daa0eb,2024-01-23_06h52.35.127,bars,2023.2.3,Win32,144.092219,657b66ea316d21385b68909f,,,,,,,,,,,1631.337,1632.333,,,1632.833,1633.083,,152,152,,,,,,,,,,,,,,,,bars/005.png,bars/mask005.png,,,,,,,,,,,,4,2,,,,,,,10,7,9,6,,,,,,,,,,,1632.333,1632.833,1633.083,1637.402,space,4.313,,1637.402,38,12,1638.402,1638.402,1638.403,,,,0,5,5,5,1,10,140,,,,,,,,
,,6026891e02f12c316ba8bcbb,65af541f996cbb0023daa0eb,2024-01-23_06h52.35.127,bars,2023.2.3,Win32,144.092219,657b66ea316d21385b68909f,,,,,,,,,,,1638.404,1639.403,,,1639.903,1640.153,,104,-76,,,,,,,,,,,,,,,,bars/019.png,bars/mask004.png,,,,,,,,,,,,4,2,,,,,,,8,5,7,4,,,,,,,,,,,1639.403,1639.903,1640.153,1644.048,space,3.889,,1644.048,59,1,1645.048,1645.049,1645.05,,,,0,6,6,6,1,45,105,,,,,,,,
,,6026891e02f12c316ba8bcbb,65af541f996cbb0023daa0eb,2024-01-23_06h52.35.127,bars,2023.2.3,Win32,144.092219,657b66ea316d21385b68909f,,,,,,,,,,,1645.05,1646.049,,,1646.549,1646.799,,7,187,,,,,,,,,,,,,,,,bars/040.png,bars/mask007.png,,,,,,,,,,,,7,2,,,,,,,6,7,6,8,,,,,,,,,,,1646.049,1646.549,1646.799,1649.646,space,2.843,,1649.646,47,2,1650.646,1650.646,1650.647,,,,0,7,7,7,1,140,5,,,,,,,,
,,6026891e02f12c316ba8bcbb,65af541f996cbb0023daa0eb,2024-01-23_06h52.35.127,bars,2023.2.3,Win32,144.092219,657b66ea316d21385b68909f,,,,,,,,,,,1650.647,1651.646,,,1652.146,1652.396,,65,65,,,,,,,,,,,,,,,,bars/007.png,bars/mask009.png,,,,,,,,,,,,4,2,,,,,,,8,5,9,6,,,,,,,,,,,1651.646,1652.146,1652.396,1654.298,space,1.896,,1654.298,70,10,1655.299,1655.299,1655.3,,,,0,8,8,8,1,175,55,,,,,,,,
,,6026891e02f12c316ba8bcbb,65af541f996cbb0023daa0eb,2024-01-23_06h52.35.127,bars,2023.2.3,Win32,144.092219,657b66ea316d21385b68909f,,,,,,,,,,,1655.3,1656.299,,,1656.799,1657.049,,40,40,,,,,,,,,,,,,,,,bars/035.png,bars/mask002.png,,,,,,,,,,,,3,2,,,,,,,10,7,10,8,,,,,,,,,,,1656.299,1656.799,1657.049,1659.112,space,2.06,,1659.112,45,20,1660.112,1660.112,1660.113,,,,0,9,9,9,1,175,60,,,,,,,,
,,6026891e02f12c316ba8bcbb,65af541f996cbb0023daa0eb,2024-01-23_06h52.35.127,bars,2023.2.3,Win32,144.092219,657b66ea316d21385b68909f,,,,,,,,,,,1660.114,1661.112,,,1661.611,1661.861,,165,-15,,,,,,,,,,,,,,,,bars/016.png,bars/mask000.png,,,,,,,,,,,,9,2,,,,,,,8,9,8,9,,,,,,,,,,,1661.112,1661.611,1661.861,1665.723,space,3.854,,1665.723,55,0,1666.723,1666.723,1666.726,,,,0,10,10,10,1,40,165,,,,,,,,
,,6026891e02f12c316ba8bcbb,65af541f996cbb0023daa0eb,2024-01-23_06h52.35.127,bars,2023.2.3,Win32,144.092219,657b66ea316d21385b68909f,,,,,,,,,,,1666.726,1667.723,,,1668.223,1668.473,,77,77,,,,,,,,,,,,,,,,bars/038.png,bars/mask008.png,,,,,,,,,,,,8,2,,,,,,,6,10,5,10,,,,,,,,,,,1667.723,1668.223,1668.473,1669.626,space,1.146,,1669.626,88,7,1670.626,1670.626,1670.627,,,,0,11,11,11,1,165,70,,,,,,,,
,,6026891e02f12c316ba8bcbb,65af541f996cbb0023daa0eb,2024-01-23_06h52.35.127,bars,2023.2.3,Win32,144.092219,657b66ea316d21385b68909f,,,,,,,,,,,1670.627,1671.625,,,1672.126,1672.375,,179,-1,,,,,,,,,,,,,,,,bars/040.png,bars/mask004.png,,,,,,,,,,,,6,2,,,,,,,8,10,10,8,,,,,,,,,,,1671.625,1672.126,1672.375,1674.494,space,2.112,,1674.494,39,6,1675.494,1675.494,1675.495,,,,0,12,12,12,1,140,5,,,,,,,,
,,6026891e02f12c316ba8bcbb,65af541f996cbb0023daa0eb,2024-01-23_06h52.35.127,bars,2023.2.3,Win32,144.092219,657b66ea316d21385b68909f,,,,,,,,,,,1675.495,1676.494,,,1676.994,1677.243,,99,99,,,,,,,,,,,,,,,,bars/046.png,bars/mask008.png,,,,,,,,,,,,4,2,,,,,,,10,10,10,8,,,,,,,,,,,1676.494,1676.994,1677.243,1680.5,space,3.25,,1680.5,56,14,1681.501,1681.501,1681.502,,,,0,13,13,13,1,155,85,,,,,,,,
,,6026891e02f12c316ba8bcbb,65af541f996cbb0023daa0eb,2024-01-23_06h52.35.127,bars,2023.2.3,Win32,144.092219,657b66ea316d21385b68909f,,,,,,,,,,,1681.502,1682.501,,,1683.001,1683.251,,112,112,,,,,,,,,,,,,,,,bars/041.png,bars/mask000.png,,,,,,,,,,,,1,2,,,,,,,8,8,7,8,,,,,,,,,,,1682.501,1683.001,1683.251,1684.334,space,1.077,,1684.334,88,27,1685.334,1685.334,1685.335,,,,0,14,14,14,1,20,85,,,,,,,,
,,6026891e02f12c316ba8bcbb,65af541f996cbb0023daa0eb,2024-01-23_06h52.35.127,bars,2023.2.3,Win32,144.092219,657b66ea316d21385b68909f,,,,,,,,,,,1685.336,1686.334,,,1686.834,1687.084,,133,133,,,,,,,,,,,,,,,,bars/000.png,bars/mask009.png,,,,,,,,,,,,4,2,,,,,,,6,6,7,6,,,,,,,,,,,1686.334,1686.834,1687.084,1687.924,space,0.834,,1687.924,87,12,1688.924,1688.924,1688.925,,,,0,15,15,15,1,40,145,,,,,,,,
,,6026891e02f12c316ba8bcbb,65af541f996cbb0023daa0eb,2024-01-23_06h52.35.127,bars,2023.2.3,Win32,144.092219,657b66ea316d21385b68909f,,,,,,,,,,,1688.925,1689.924,,,1690.425,1690.674,,68,68,,,,,,,,,,,,,,,,bars/034.png,bars/mask007.png,,,,,,,,,,,,2,2,,,,,,,8,4,7,2,,,,,,,,,,,1689.924,1690.425,1690.674,1693.036,space,2.356,,1693.036,57,3,1694.036,1694.036,1694.036,,,,0,16,16,16,1,125,65,,,,,,,,
,,6026891e02f12c316ba8bcbb,65af541f996cbb0023daa0eb,2024-01-23_06h52.35.127,bars,2023.2.3,Win32,144.092219,657b66ea316d21385b68909f,,,,,,,,,,,1694.037,1695.036,,,1695.536,1695.785,,57,57,,,,,,,,,,,,,,,,bars/007.png,bars/mask004.png,,,,,,,,,,,,2,2,,,,,,,10,2,9,2,,,,,,,,,,,1695.036,1695.536,1695.786,1699.293,space,3.501,,1699.293,62,2,1700.293,1700.293,1700.296,,,,0,17,17,17,1,175,55,,,,,,,,
,,6026891e02f12c316ba8bcbb,65af541f996cbb0023daa0eb,2024-01-23_06h52.35.127,bars,2023.2.3,Win32,144.092219,657b66ea316d21385b68909f,,,,,,,,,,,1700.296,1701.293,,,1701.793,1702.043,,46,46,,,,,,,,,,,,,,,,bars/035.png,bars/mask009.png,,,,,,,,,,,,0,2,,,,,,,8,0,6,0,,,,,,,,,,,1701.293,1701.793,1702.043,1706.01,space,3.965,,1706.01,51,14,1707.009,1707.009,1707.01,,,,0,18,18,18,1,175,60,,,,,,,,
,,6026891e02f12c316ba8bcbb,65af541f996cbb0023daa0eb,2024-01-23_06h52.35.127,bars,2023.2.3,Win32,144.092219,657b66ea316d21385b68909f,,,,,,,,,,,1707.01,1708.008,,,1708.509,1708.759,,110,-70,,,,,,,,,,,,,,,,bars/006.png,bars/mask005.png,,,,,,,,,,,,1,2,,,,,,,10,0,10,2,,,,,,,,,,,1708.008,1708.509,1708.759,1712.925,space,4.161,,1712.925,75,10,1713.925,1713.925,1713.926,,,,0,19,19,19,1,35,100,,,,,,,,
,,6026891e02f12c316ba8bcbb,65af541f996cbb0023daa0eb,2024-01-23_06h52.35.127,bars,2023.2.3,Win32,144.092219,657b66ea316d21385b68909f,,,,,,,,,,,1713.926,1714.925,,,1715.425,1715.675,,60,60,,,,,,,,,,,,,,,,bars/048.png,bars/mask001.png,,,,,,,,,,,,7,1,,,,,,,10,0,10,0,,,,,,,,,,,1714.925,1715.425,1715.676,1719.585,space,3.902,,1719.585,10,65,1720.585,1720.585,1720.587,,,,0,20,20,20,1,50,175,,,,,,,,
,,6026891e02f12c316ba8bcbb,65af541f996cbb0023daa0eb,2024-01-23_06h52.35.127,bars,2023.2.3,Win32,144.092219,657b66ea316d21385b68909f,,,,,,,,,,,1720.587,1721.585,,,1722.085,1722.335,,19,19,,,,,,,,,,,,,,,,bars/006.png,bars/mask003.png,,,,,,,,,,,,2,1,,,,,,,8,0,5,0,,,,,,,,,,,1721.585,1722.085,1722.335,1726.057,space,3.717,,1726.057,16,81,1727.057,1727.057,1727.058,,,,0,21,21,21,1,35,100,,,,,,,,
,,6026891e02f12c316ba8bcbb,65af541f996cbb0023daa0eb,2024-01-23_06h52.35.127,bars,2023.2.3,Win32,144.092219,657b66ea316d21385b68909f,,,,,,,,,,,1727.058,1728.058,,,1728.558,1728.807,,146,146,,,,,,,,,,,,,,,,bars/034.png,bars/mask001.png,,,,,,,,,,,,3,1,,,,,,,10,0,9,0,,,,,,,,,,,1728.058,1728.558,1728.807,1730.017,space,1.202,,1730.017,21,81,1731.016,1731.016,1731.019,,,,0,22,22,22,1,125,65,,,,,,,,
,,6026891e02f12c316ba8bcbb,65af541f996cbb0023daa0eb,2024-01-23_06h52.35.127,bars,2023.2.3,Win32,144.092219,657b66ea316d21385b68909f,,,,,,,,,,,1731.019,1732.016,,,1732.515,1732.766,,134,134,,,,,,,,,,,,,,,,bars/030.png,bars/mask007.png,,,,,,,,,,,,7,1,,,,,,,10,2,9,1,,,,,,,,,,,1732.016,1732.515,1732.766,1733.801,space,1.029,,1733.801,6,69,1734.8,1734.8,1734.802,,,,0,23,23,23,1,140,65,,,,,,,,
,,6026891e02f12c316ba8bcbb,65af541f996cbb0023daa0eb,2024-01-23_06h52.35.127,bars,2023.2.3,Win32,144.092219,657b66ea316d21385b68909f,,,,,,,,,,,1734.802,1735.801,,,1736.3,1736.551,,122,122,,,,,,,,,,,,,,,,bars/001.png,bars/mask001.png,,,,,,,,,,,,6,1,,,,,,,8,0,8,0,,,,,,,,,,,1735.801,1736.3,1736.551,1740.982,space,4.427,,1740.982,8,37,1741.982,1741.982,1741.983,,,,0,24,24,24,1,130,85,,,,,,,,
,,6026891e02f12c316ba8bcbb,65af541f996cbb0023daa0eb,2024-01-23_06h52.35.127,bars,2023.2.3,Win32,144.092219,657b66ea316d21385b68909f,,,,,,,,,,,1741.983,1742.982,,,1743.482,1743.732,,136,136,,,,,,,,,,,,,,,,bars/034.png,bars/mask009.png,,,,,,,,,,,,3,1,,,,,,,6,0,4,0,,,,,,,,,,,1742.982,1743.482,1743.732,1746.218,space,2.48,,1746.218,11,71,1747.218,1747.218,1747.219,,,,0,25,25,25,1,125,65,,,,,,,,
,,6026891e02f12c316ba8bcbb,65af541f996cbb0023daa0eb,2024-01-23_06h52.35.127,bars,2023.2.3,Win32,144.092219,657b66ea316d21385b68909f,,,,,,,,,,,1747.219,1748.218,,,1748.718,1748.967,,43,43,,,,,,,,,,,,,,,,bars/004.png,bars/mask003.png,,,,,,,,,,,,1,1,,,,,,,4,2,3,1,,,,,,,,,,,1748.218,1748.718,1748.967,1752.433,space,3.461,,1752.433,18,82,1753.433,1753.433,1753.434,,,,0,26,26,26,1,25,125,,,,,,,,
,,6026891e02f12c316ba8bcbb,65af541f996cbb0023daa0eb,2024-01-23_06h52.35.127,bars,2023.2.3,Win32,144.092219,657b66ea316d21385b68909f,,,,,,,,,,,1753.434,1754.433,,,1754.933,1755.183,,165,-15,,,,,,,,,,,,,,,,bars/039.png,bars/mask006.png,,,,,,,,,,,,1,1,,,,,,,2,0,2,0,,,,,,,,,,,1754.433,1754.933,1755.183,1757.211,space,2.021,,1757.211,10,60,1758.21,1758.21,1758.212,,,,0,27,27,27,1,175,105,,,,,,,,
,,6026891e02f12c316ba8bcbb,65af541f996cbb0023daa0eb,2024-01-23_06h52.35.127,bars,2023.2.3,Win32,144.092219,657b66ea316d21385b68909f,,,,,,,,,,,1758.212,1759.211,,,1759.711,1759.961,,6,186,,,,,,,,,,,,,,,,bars/023.png,bars/mask000.png,,,,,,,,,,,,1,1,,,,,,,0,2,1,1,,,,,,,,,,,1759.211,1759.711,1759.961,1762.676,space,2.709,,1762.676,14,71,1763.677,1763.677,1763.679,,,,0,28,28,28,1,20,115,,,,,,,,
,,6026891e02f12c316ba8bcbb,65af541f996cbb0023daa0eb,2024-01-23_06h52.35.127,bars,2023.2.3,Win32,144.092219,657b66ea316d21385b68909f,,,,,,,,,,,1763.68,1764.676,,,1765.176,1765.426,,31,31,,,,,,,,,,,,,,,,bars/004.png,bars/mask008.png,,,,,,,,,,,,2,1,,,,,,,2,0,3,0,,,,,,,,,,,1764.676,1765.176,1765.426,1771.26,space,5.826,,1771.26,6,86,1772.26,1772.26,1772.261,,,,0,29,29,29,1,25,125,,,,,,,,
,,6026891e02f12c316ba8bcbb,65af541f996cbb0023daa0eb,2024-01-23_06h52.35.127,bars,2023.2.3,Win32,144.092219,657b66ea316d21385b68909f,,,,,,,,,,,1772.262,1773.26,,,1773.76,1774.01,,107,287,,,,,,,,,,,,,,,,bars/045.png,bars/mask008.png,,,,,,,,,,,,2,1,,,,,,,4,2,3,1,,,,,,,,,,,1773.26,1773.76,1774.01,1778.517,space,4.5,,1778.517,7,83,1779.517,1779.517,1779.519,,,,0,30,30,30,1,100,10,,,,,,,,
,,6026891e02f12c316ba8bcbb,65af541f996cbb0023daa0eb,2024-01-23_06h52.35.127,bars,2023.2.3,Win32,144.092219,657b66ea316d21385b68909f,,,,,,,,,,,1779.519,1780.517,,,1781.017,1781.267,,105,105,,,,,,,,,,,,,,,,bars/045.png,bars/mask004.png,,,,,,,,,,,,3,1,,,,,,,2,4,4,5,,,,,,,,,,,1780.517,1781.017,1781.267,1785.336,space,4.066,,1785.336,5,85,1786.337,1786.337,1786.338,,,,0,31,31,31,1,100,10,,,,,,,,
,,6026891e02f12c316ba8bcbb,65af541f996cbb0023daa0eb,2024-01-23_06h52.35.127,bars,2023.2.3,Win32,144.092219,657b66ea316d21385b68909f,,,,,,,,,,,1786.338,1787.337,,,1787.837,1788.087,,112,112,,,,,,,,,,,,,,,,bars/025.png,bars/mask008.png,,,,,,,,,,,,1,1,,,,,,,0,6,1,5,,,,,,,,,,,1787.337,1787.837,1788.087,1789.538,space,1.448,,1789.538,7,72,1790.538,1790.538,1790.539,,,,0,32,32,32,1,105,40,,,,,,,,
,,6026891e02f12c316ba8bcbb,65af541f996cbb0023daa0eb,2024-01-23_06h52.35.127,bars,2023.2.3,Win32,144.092219,657b66ea316d21385b68909f,,,,,,,,,,,1790.54,1791.538,,,1792.038,1792.288,,139,139,,,,,,,,,,,,,,,,bars/037.png,bars/mask000.png,,,,,,,,,,,,0,1,,,,,,,0,8,0,8,,,,,,,,,,,1791.538,1792.038,1792.288,1796.914,space,4.622,,1796.914,11,34,1797.914,1797.914,1797.916,,,,0,33,33,33,1,150,105,,,,,,,,
,,6026891e02f12c316ba8bcbb,65af541f996cbb0023daa0eb,2024-01-23_06h52.35.127,bars,2023.2.3,Win32,144.092219,657b66ea316d21385b68909f,,,,,,,,,,,1797.916,1798.913,,,1799.413,1799.663,,0,0,,,,,,,,,,,,,,,,bars/040.png,bars/mask006.png,,,,,,,,,,,,5,2,,,,,,,0,6,0,6,,,,,,,,,,,1798.913,1799.413,1799.663,1800.913,space,1.247,,1800.913,40,5,1801.914,1801.914,1801.915,,,,0,34,34,34,1,140,5,,,,,,,,
,,6026891e02f12c316ba8bcbb,65af541f996cbb0023daa0eb,2024-01-23_06h52.35.127,bars,2023.2.3,Win32,144.092219,657b66ea316d21385b68909f,,,,,,,,,,,1801.916,1802.913,,,1803.414,1803.663,,25,25,,,,,,,,,,,,,,,,bars/025.png,bars/mask007.png,,,,,,,,,,,,4,2,,,,,,,0,8,0,7,,,,,,,,,,,1802.913,1803.414,1803.663,1805.962,space,2.295,,1805.962,80,15,1806.962,1806.962,1806.963,,,,0,35,35,35,1,105,40,,,,,,,,
,,6026891e02f12c316ba8bcbb,65af541f996cbb0023daa0eb,2024-01-23_06h52.35.127,bars,2023.2.3,Win32,144.092219,657b66ea316d21385b68909f,,,,,,,,,,,1806.963,1807.962,,,1808.462,1808.712,,30,30,,,,,,,,,,,,,,,,bars/029.png,bars/mask000.png,,,,,,,,,,,,3,2,,,,,,,2,6,2,6,,,,,,,,,,,1807.962,1808.462,1808.712,1810.51,space,1.793,,1810.51,60,15,1811.511,1811.511,1811.512,,,,0,36,36,36,1,90,45,,,,,,,,
,,6026891e02f12c316ba8bcbb,65af541f996cbb0023daa0eb,2024-01-23_06h52.35.127,bars,2023.2.3,Win32,144.092219,657b66ea316d21385b68909f,,,,,,,,,,,1811.512,1812.511,,,1813.012,1813.26,,28,28,,,,,,,,,,,,,,,,bars/029.png,bars/mask007.png,,,,,,,,,,,,3,2,,,,,,,0,8,1,7,,,,,,,,,,,1812.511,1813.012,1813.26,1816.087,space,2.821,,1816.087,62,17,1817.087,1817.087,1817.088,,,,0,37,37,37,1,90,45,,,,,,,,
,,6026891e02f12c316ba8bcbb,65af541f996cbb0023daa0eb,2024-01-23_06h52.35.127,bars,2023.2.3,Win32,144.092219,657b66ea316d21385b68909f,,,,,,,,,,,1817.088,1818.087,,,1818.588,1818.838,,146,146,,,,,,,,,,,,,,,,bars/005.png,bars/mask001.png,,,,,,,,,,,,7,2,,,,,,,2,10,5,9,,,,,,,,,,,1818.087,1818.588,1818.838,1822.511,space,3.667,,1822.511,44,6,1823.511,1823.511,1823.512,,,,0,38,38,38,1,10,140,,,,,,,,
,,6026891e02f12c316ba8bcbb,65af541f996cbb0023daa0eb,2024-01-23_06h52.35.127,bars,2023.2.3,Win32,144.092219,657b66ea316d21385b68909f,,,,,,,,,,,1823.512,1824.512,,,1825.012,1825.261,,166,-14,,,,,,,,,,,,,,,,bars/016.png,bars/mask001.png,,,,,,,,,,,,10,2,,,,,,,0,10,0,10,,,,,,,,,,,1824.512,1825.012,1825.261,1827.518,space,2.251,,1827.518,54,1,1828.518,1828.518,1828.518,,,,0,39,39,39,1,40,165,,,,,,,,
,,6026891e02f12c316ba8bcbb,65af541f996cbb0023daa0eb,2024-01-23_06h52.35.127,bars,2023.2.3,Win32,144.092219,657b66ea316d21385b68909f,,,,,,,,,,,1828.519,1829.519,,,1830.015,1830.261,,35,35,,,,,,,,,,,,,,,,bars/025.png,bars/mask003.png,,,,,,,,,,,,8,2,,,,,,,2,10,3,10,,,,,,,,,,,1829.519,1830.015,1830.261,1832.657,space,2.388,,1832.657,70,5,1833.657,1833.657,1833.659,,,,0,40,40,40,1,105,40,,,,,,,,
,,6026891e02f12c316ba8bcbb,65af541f996cbb0023daa0eb,2024-01-23_06h52.35.127,bars,2023.2.3,Win32,144.092219,657b66ea316d21385b68909f,,,,,,,,,,,1833.659,1834.658,,,1835.157,1835.407,,57,57,,,,,,,,,,,,,,,,bars/007.png,bars/mask000.png,,,,,,,,,,,,9,2,,,,,,,4,10,6,10,,,,,,,,,,,1834.658,1835.157,1835.407,1838.727,space,3.314,,1838.727,62,2,1839.727,1839.727,1839.728,,,,0,41,41,41,1,175,55,,,,,,,,
,,6026891e02f12c316ba8bcbb,65af541f996cbb0023daa0eb,2024-01-23_06h52.35.127,bars,2023.2.3,Win32,144.092219,657b66ea316d21385b68909f,,,,,,,,,,,1839.728,1840.727,,,1841.227,1841.477,,2,2,,,,,,,,,,,,,,,,bars/040.png,bars/mask006.png,,,,,,,,,,,,9,2,,,,,,,2,10,2,10,,,,,,,,,,,1840.727,1841.227,1841.477,1843.129,space,1.647,,1843.129,42,3,1844.129,1844.13,1844.131,,,,0,42,42,42,1,140,5,,,,,,,,
,,6026891e02f12c316ba8bcbb,65af541f996cbb0023daa0eb,2024-01-23_06h52.35.127,bars,2023.2.3,Win32,144.092219,657b66ea316d21385b68909f,,,,,,,,,,,1844.131,1845.129,,,1845.63,1845.88,,98,98,,,,,,,,,,,,,,,,bars/011.png,bars/mask004.png,,,,,,,,,,,,5,2,,,,,,,4,10,4,9,,,,,,,,,,,1845.129,1845.63,1845.88,1847.247,space,1.362,,1847.247,62,13,1848.248,1848.248,1848.249,,,,0,43,43,43,1,160,85,,,,,,,,
,,6026891e02f12c316ba8bcbb,65af541f996cbb0023daa0eb,2024-01-23_06h52.35.127,bars,2023.2.3,Win32,144.092219,657b66ea316d21385b68909f,,,,,,,,,,,1848.249,1849.248,,,1849.748,1849.997,,111,111,,,,,,,,,,,,,,,,bars/037.png,bars/mask003.png,,,,,,,,,,,,6,2,,,,,,,6,8,7,8,,,,,,,,,,,1849.248,1849.748,1849.997,1854.352,space,4.35,,1854.352,39,6,1855.352,1855.352,1855.353,,,,0,44,44,44,1,150,105,,,,,,,,
,,6026891e02f12c316ba8bcbb,65af541f996cbb0023daa0eb,2024-01-23_06h52.35.127,bars,2023.2.3,Win32,144.092219,657b66ea316d21385b68909f,,,,,,,,,,,1855.353,1856.352,,,1856.852,1857.102,,46,46,,,,,,,,,,,,,,,,bars/031.png,bars/mask005.png,,,,,,,,,,,,6,2,,,,,,,4,10,2,10,,,,,,,,,,,1856.352,1856.852,1857.102,1862.012,space,4.903,,1862.012,74,11,1863.012,1863.012,1863.015,,,,0,45,45,45,1,120,35,,,,,,,,
,,6026891e02f12c316ba8bcbb,65af541f996cbb0023daa0eb,2024-01-23_06h52.35.127,bars,2023.2.3,Win32,144.092219,657b66ea316d21385b68909f,,,,,,,,,,,1863.016,1864.014,,,1864.512,1864.762,,31,31,,,,,,,,,,,,,,,,bars/013.png,bars/mask009.png,,,,,,,,,,,,2,2,,,,,,,2,8,2,6,,,,,,,,,,,1864.014,1864.512,1864.762,1867.075,space,2.308,,1867.075,44,21,1868.074,1868.074,1868.076,,,,0,46,46,46,1,75,10,,,,,,,,
,,6026891e02f12c316ba8bcbb,65af541f996cbb0023daa0eb,2024-01-23_06h52.35.127,bars,2023.2.3,Win32,144.092219,657b66ea316d21385b68909f,,,,,,,,,,,1868.076,1869.074,,,1869.574,1869.825,,71,71,,,,,,,,,,,,,,,,bars/028.png,bars/mask009.png,,,,,,,,,,,,1,1,,,,,,,4,6,4,7,,,,,,,,,,,1869.074,1869.574,1869.825,1874.2,space,4.371,,1874.2,26,49,1875.2,1875.2,1875.203,,,,0,47,47,47,1,45,120,,,,,,,,
,,6026891e02f12c316ba8bcbb,65af541f996cbb0023daa0eb,2024-01-23_06h52.35.127,bars,2023.2.3,Win32,144.092219,657b66ea316d21385b68909f,,,,,,,,,,,1875.203,1876.2,,,1876.7,1876.95,,8,8,,,,,,,,,,,,,,,,bars/013.png,bars/mask000.png,,,,,,,,,,,,7,2,,,,,,,2,8,2,7,,,,,,,,,,,1876.2,1876.7,1876.95,1882.304,space,5.351,,1882.304,67,2,1883.304,1883.304,1883.306,,,,0,48,48,48,1,75,10,,,,,,,,
,,6026891e02f12c316ba8bcbb,65af541f996cbb0023daa0eb,2024-01-23_06h52.35.127,bars,2023.2.3,Win32,144.092219,657b66ea316d21385b68909f,,,,,,,,,,,1883.306,1884.304,,,1884.804,1885.055,,158,158,,,,,,,,,,,,,,,,bars/023.png,bars/mask005.png,,,,,,,,,,,,0,1,,,,,,,0,10,0,10,,,,,,,,,,,1884.304,1884.804,1885.055,1885.977,space,0.921,,1885.977,42,43,1886.977,1886.977,1886.98,,,,0,49,49,49,1,20,115,,,,,,,,
,,6026891e02f12c316ba8bcbb,65af541f996cbb0023daa0eb,2024-01-23_06h52.35.127,bars,2023.2.3,Win32,144.092219,657b66ea316d21385b68909f,,,,,,,,,,,,,,,,,,,,,,,,,,,,,,,,,,,,,,,,,,,,,,,,,,,,,,,,,,,,,,,,,,,,,,,,,,,,,,,,,,,,,,,,,,,,,1886.98,1946.98,0,3,3,0,1,sequence_tables/blk026.csv
,,6026891e02f12c316ba8bcbb,65af541f996cbb0023daa0eb,2024-01-23_06h52.35.127,bars,2023.2.3,Win32,144.092219,657b66ea316d21385b68909f,,,,,,,,,,,2121.906,2122.907,,,2123.407,2123.65,,151,151,,,,,,,,,,,,,,,,bars/018.png,bars/mask001.png,,,,,,,,,,,,7,1,,,,,,,7,5,7,6,,,,,,1946.982,2121.9,space,174.914,,2122.907,2123.407,2123.65,2124.775,space,1.119,,2124.775,1,61,2125.775,2125.775,2125.777,,,,0,0,0,0,1,150,90,,,,,,,,
,,6026891e02f12c316ba8bcbb,65af541f996cbb0023daa0eb,2024-01-23_06h52.35.127,bars,2023.2.3,Win32,144.092219,657b66ea316d21385b68909f,,,,,,,,,,,2125.777,2126.775,,,2127.276,2127.525,,64,64,,,,,,,,,,,,,,,,bars/010.png,bars/mask009.png,,,,,,,,,,,,5,2,,,,,,,5,7,5,7,,,,,,,,,,,2126.775,2127.276,2127.525,2133.061,space,5.532,,2133.061,79,9,2134.06,2134.06,2134.063,,,,0,1,1,1,1,165,55,,,,,,,,
,,6026891e02f12c316ba8bcbb,65af541f996cbb0023daa0eb,2024-01-23_06h52.35.127,bars,2023.2.3,Win32,144.092219,657b66ea316d21385b68909f,,,,,,,,,,,2134.064,2135.06,,,2135.56,2135.81,,73,73,,,,,,,,,,,,,,,,bars/034.png,bars/mask002.png,,,,,,,,,,,,3,2,,,,,,,3,5,4,4,,,,,,,,,,,2135.06,2135.56,2135.811,2139.762,space,3.945,,2139.762,52,8,2140.761,2140.761,2140.763,,,,0,2,2,2,1,125,65,,,,,,,,
,,6026891e02f12c316ba8bcbb,65af541f996cbb0023daa0eb,2024-01-23_06h52.35.127,bars,2023.2.3,Win32,144.092219,657b66ea316d21385b68909f,,,,,,,,,,,2140.763,2141.762,,,2142.262,2142.511,,10,10,,,,,,,,,,,,,,,,bars/040.png,bars/mask003.png,,,,,,,,,,,,3,2,,,,,,,1,3,2,3,,,,,,,,,,,2141.762,2142.262,2142.511,2143.358,space,0.842,,2143.358,50,5,2144.359,2144.359,2144.36,,,,0,3,3,3,1,140,5,,,,,,,,
,,6026891e02f12c316ba8bcbb,65af541f996cbb0023daa0eb,2024-01-23_06h52.35.127,bars,2023.2.3,Win32,144.092219,657b66ea316d21385b68909f,,,,,,,,,,,2144.36,2145.359,,,2145.859,2146.109,,178,178,,,,,,,,,,,,,,,,bars/029.png,bars/mask002.png,,,,,,,,,,,,0,2,,,,,,,3,5,2,6,,,,,,,,,,,2145.359,2145.859,2146.109,2150.865,space,4.749,,2150.866,88,47,2151.866,2151.866,2151.867,,,,0,4,4,4,1,90,45,,,,,,,,
,,6026891e02f12c316ba8bcbb,65af541f996cbb0023daa0eb,2024-01-23_06h52.35.127,bars,2023.2.3,Win32,144.092219,657b66ea316d21385b68909f,,,,,,,,,,,2151.867,2152.866,,,2153.366,2153.616,,89,89,,,,,,,,,,,,,,,,bars/030.png,bars/mask005.png,,,,,,,,,,,,0,2,,,,,,,1,3,3,2,,,,,,,,,,,2152.866,2153.366,2153.616,2158.387,space,4.766,,2158.387,51,24,2159.387,2159.387,2159.387,,,,0,5,5,5,1,140,65,,,,,,,,
,,6026891e02f12c316ba8bcbb,65af541f996cbb0023daa0eb,2024-01-23_06h52.35.127,bars,2023.2.3,Win32,144.092219,657b66ea316d21385b68909f,,,,,,,,,,,2159.388,2160.386,,,2160.887,2161.137,,63,63,,,,,,,,,,,,,,,,bars/010.png,bars/mask008.png,,,,,,,,,,,,1,2,,,,,,,3,1,2,1,,,,,,,,,,,2160.386,2160.887,2161.137,2164.831,space,3.69,,2164.832,78,8,2165.831,2165.831,2165.833,,,,0,6,6,6,1,165,55,,,,,,,,
,,6026891e02f12c316ba8bcbb,65af541f996cbb0023daa0eb,2024-01-23_06h52.35.127,bars,2023.2.3,Win32,144.092219,657b66ea316d21385b68909f,,,,,,,,,,,2165.834,2166.831,,,2167.331,2167.582,,22,22,,,,,,,,,,,,,,,,bars/022.png,bars/mask007.png,,,,,,,,,,,,0,2,,,,,,,5,0,6,0,,,,,,,,,,,2166.831,2167.331,2167.582,2170.283,space,2.696,,2170.283,73,2,2171.283,2171.283,2171.284,,,,0,7,7,7,1,95,20,,,,,,,,
,,6026891e02f12c316ba8bcbb,65af541f996cbb0023daa0eb,2024-01-23_06h52.35.127,bars,2023.2.3,Win32,144.092219,657b66ea316d21385b68909f,,,,,,,,,,,2171.285,2172.283,,,2172.784,2173.033,,33,33,,,,,,,,,,,,,,,,bars/035.png,bars/mask001.png,,,,,,,,,,,,0,2,,,,,,,7,0,7,0,,,,,,,,,,,2172.283,2172.784,2173.033,2177.249,space,4.212,,2177.249,38,27,2178.249,2178.249,2178.25,,,,0,8,8,8,1,175,60,,,,,,,,
,,6026891e02f12c316ba8bcbb,65af541f996cbb0023daa0eb,2024-01-23_06h52.35.127,bars,2023.2.3,Win32,144.092219,657b66ea316d21385b68909f,,,,,,,,,,,2178.25,2179.249,,,2179.749,2179.999,,133,133,,,,,,,,,,,,,,,,bars/005.png,bars/mask004.png,,,,,,,,,,,,1,2,,,,,,,9,0,9,1,,,,,,,,,,,2179.249,2179.749,2179.999,2185.741,space,5.737,,2185.741,57,7,2186.742,2186.742,2186.742,,,,0,9,9,9,1,10,140,,,,,,,,
,,6026891e02f12c316ba8bcbb,65af541f996cbb0023daa0eb,2024-01-23_06h52.35.127,bars,2023.2.3,Win32,144.092219,657b66ea316d21385b68909f,,,,,,,,,,,2186.743,2187.741,,,2188.242,2188.492,,104,104,,,,,,,,,,,,,,,,bars/002.png,bars/mask001.png,,,,,,,,,,,,0,2,,,,,,,10,2,9,1,,,,,,,,,,,2187.741,2188.242,2188.492,2193.916,space,5.419,,2193.916,26,19,2194.915,2194.915,2194.916,,,,0,10,10,10,1,130,85,,,,,,,,
,,6026891e02f12c316ba8bcbb,65af541f996cbb0023daa0eb,2024-01-23_06h52.35.127,bars,2023.2.3,Win32,144.092219,657b66ea316d21385b68909f,,,,,,,,,,,2194.916,2195.916,,,2196.416,2196.666,,13,13,,,,,,,,,,,,,,,,bars/047.png,bars/mask002.png,,,,,,,,,,,,7,1,,,,,,,8,4,8,4,,,,,,,,,,,2195.916,2196.416,2196.666,2202.27,space,5.597,,2202.27,2,57,2203.27,2203.27,2203.273,,,,0,11,11,11,1,15,70,,,,,,,,
,,6026891e02f12c316ba8bcbb,65af541f996cbb0023daa0eb,2024-01-23_06h52.35.127,bars,2023.2.3,Win32,144.092219,657b66ea316d21385b68909f,,,,,,,,,,,2203.273,2204.27,,,2204.77,2205.015,,121,121,,,,,,,,,,,,,,,,bars/003.png,bars/mask006.png,,,,,,,,,,,,3,2,,,,,,,6,6,6,7,,,,,,,,,,,2204.27,2204.77,2205.015,2207.118,space,2.096,,2207.118,84,19,2208.117,2208.117,2208.12,,,,0,12,12,12,1,25,140,,,,,,,,
,,6026891e02f12c316ba8bcbb,65af541f996cbb0023daa0eb,2024-01-23_06h52.35.127,bars,2023.2.3,Win32,144.092219,657b66ea316d21385b68909f,,,,,,,,,,,2208.12,2209.118,,,2209.617,2209.867,,159,-21,,,,,,,,,,,,,,,,bars/007.png,bars/mask005.png,,,,,,,,,,,,4,1,,,,,,,8,8,8,9,,,,,,,,,,,2209.118,2209.617,2209.867,2214.299,space,4.428,,2214.299,16,76,2215.298,2215.298,2215.3,,,,0,13,13,13,1,175,55,,,,,,,,
,,6026891e02f12c316ba8bcbb,65af541f996cbb0023daa0eb,2024-01-23_06h52.35.127,bars,2023.2.3,Win32,144.092219,657b66ea316d21385b68909f,,,,,,,,,,,2215.3,2216.298,,,2216.798,2217.048,,106,106,,,,,,,,,,,,,,,,bars/045.png,bars/mask005.png,,,,,,,,,,,,7,1,,,,,,,10,6,9,6,,,,,,,,,,,2216.298,2216.798,2217.048,2220.021,space,2.968,,2220.021,6,84,2221.021,2221.021,2221.021,,,,0,14,14,14,1,100,10,,,,,,,,
,,6026891e02f12c316ba8bcbb,65af541f996cbb0023daa0eb,2024-01-23_06h52.35.127,bars,2023.2.3,Win32,144.092219,657b66ea316d21385b68909f,,,,,,,,,,,2221.021,2222.02,,,2222.52,2222.77,,112,112,,,,,,,,,,,,,,,,bars/027.png,bars/mask002.png,,,,,,,,,,,,9,1,,,,,,,10,4,10,3,,,,,,,,,,,2222.02,2222.52,2222.771,2224.965,space,2.19,,2224.965,2,62,2225.965,2225.965,2225.966,,,,0,15,15,15,1,110,50,,,,,,,,
,,6026891e02f12c316ba8bcbb,65af541f996cbb0023daa0eb,2024-01-23_06h52.35.127,bars,2023.2.3,Win32,144.092219,657b66ea316d21385b68909f,,,,,,,,,,,2225.966,2226.965,,,2227.465,2227.714,,179,-1,,,,,,,,,,,,,,,,bars/047.png,bars/mask000.png,,,,,,,,,,,,5,1,,,,,,,10,6,10,5,,,,,,,,,,,2226.965,2227.465,2227.714,2231.903,space,4.182,,2231.903,16,71,2232.903,2232.903,2232.905,,,,0,16,16,16,1,15,70,,,,,,,,
,,6026891e02f12c316ba8bcbb,65af541f996cbb0023daa0eb,2024-01-23_06h52.35.127,bars,2023.2.3,Win32,144.092219,657b66ea316d21385b68909f,,,,,,,,,,,2232.905,2233.903,,,2234.402,2234.652,,21,201,,,,,,,,,,,,,,,,bars/010.png,bars/mask002.png,,,,,,,,,,,,0,2,,,,,,,10,4,10,5,,,,,,,,,,,2233.903,2234.402,2234.652,2237.368,space,2.709,,2237.368,36,34,2238.368,2238.368,2238.37,,,,0,17,17,17,1,165,55,,,,,,,,
,,6026891e02f12c316ba8bcbb,65af541f996cbb0023daa0eb,2024-01-23_06h52.35.127,bars,2023.2.3,Win32,144.092219,657b66ea316d21385b68909f,,,,,,,,,,,2238.37,2239.368,,,2239.868,2240.118,,41,41,,,,,,,,,,,,,,,,bars/013.png,bars/mask004.png,,,,,,,,,,,,0,2,,,,,,,10,6,10,7,,,,,,,,,,,2239.368,2239.868,2240.118,2242.479,space,2.358,,2242.479,34,31,2243.479,2243.479,2243.48,,,,0,18,18,18,1,75,10,,,,,,,,
,,6026891e02f12c316ba8bcbb,65af541f996cbb0023daa0eb,2024-01-23_06h52.35.127,bars,2023.2.3,Win32,144.092219,657b66ea316d21385b68909f,,,,,,,,,,,2243.48,2244.479,,,2244.979,2245.229,,48,48,,,,,,,,,,,,,,,,bars/005.png,bars/mask000.png,,,,,,,,,,,,0,1,,,,,,,10,8,10,9,,,,,,,,,,,2244.479,2244.979,2245.229,2250.695,space,5.462,,2250.695,38,88,2251.695,2251.695,2251.697,,,,0,19,19,19,1,10,140,,,,,,,,
,,6026891e02f12c316ba8bcbb,65af541f996cbb0023daa0eb,2024-01-23_06h52.35.127,bars,2023.2.3,Win32,144.092219,657b66ea316d21385b68909f,,,,,,,,,,,2251.697,2252.695,,,2253.195,2253.445,,102,102,,,,,,,,,,,,,,,,bars/006.png,bars/mask004.png,,,,,,,,,,,,8,2,,,,,,,8,10,6,9,,,,,,,,,,,2252.695,2253.195,2253.445,2255.591,space,2.142,,2255.591,67,2,2256.591,2256.591,2256.593,,,,0,20,20,20,1,35,100,,,,,,,,
,,6026891e02f12c316ba8bcbb,65af541f996cbb0023daa0eb,2024-01-23_06h52.35.127,bars,2023.2.3,Win32,144.092219,657b66ea316d21385b68909f,,,,,,,,,,,2256.593,2257.59,,,2258.09,2258.341,,99,99,,,,,,,,,,,,,,,,bars/006.png,bars/mask003.png,,,,,,,,,,,,9,2,,,,,,,6,10,6,9,,,,,,,,,,,2257.59,2258.09,2258.341,2262.577,space,4.23,,2262.578,64,1,2263.577,2263.577,2263.579,,,,0,21,21,21,1,35,100,,,,,,,,
