init_variables.started,init_variables.stopped,participant,session,date,expName,psychopyVersion,OS,frameRate,study_id,instruction_exp.started,instruction_exp.stopped,key_resp_8.keys,key_resp_8.rt,key_resp_8.duration,instruction_single.started,instruction_single.stopped,key_resp_2.keys,key_resp_2.rt,key_resp_2.duration,interval.started,interval.stopped,cue_single.started,cue_single.stopped,mask.started,mask.stopped,ori_response_single.started,res_ori,res,ori_response_single.stopped,key_resp_single.keys,key_resp_single.rt,key_resp_single.duration,disp_single.started,disp_single.stopped,key_resp.keys,key_resp.rt,key_resp.duration,single.thisRepN,single.thisTrialN,single.thisN,single.thisIndex,single.ran,ori,path,mask_path,instruction_bandit.started,instruction_bandit.stopped,key_resp_6.keys,key_resp_6.rt,key_resp_6.duration,cue_bandit.started,cue_bandit.stopped,bandit_res.keys,bandit_res.rt,bandit_res.duration,outcome_bandit.started,rew,action,outcome_bandit.stopped,bandit.thisRepN,bandit.thisTrialN,bandit.thisN,bandit.thisIndex,bandit.ran,actual_rew1,actual_rew2,rew1,rew2,instruction_task.started,instruction_task.stopped,key_resp_7.keys,key_resp_7.rt,key_resp_7.duration,wait_ready.started,wait_ready.stopped,key_resp_3.keys,key_resp_3.rt,key_resp_3.duration,cue.started,cue.stopped,ori_response.started,ori_response.stopped,key_resp_5.keys,key_resp_5.rt,key_resp_5.duration,outcome.started,diff1,diff2,outcome.stopped,disp_outcome_practice.started,disp_outcome_practice.stopped,key_resp_4.keys,key_resp_4.rt,key_resp_4.duration,trials.thisRepN,trials.thisTrialN,trials.thisN,trials.thisIndex,trials.ran,ori1,ori2,break_blk.started,break_blk.stopped,block.thisRepN,block.thisTrialN,block.thisN,block.thisIndex,block.ran,condition_file
0.0001,0.0001,60768c72f4cc270141585ff8,65af57758ebdf7e17d6d5787,2024-01-23_08h07.52.166,bars,2023.2.3,Win32,60.24096386,657b66ea316d21385b68909f,,,,,,,,,,,,,,,,,,,,,,,,,,,,,,,,,,,,,,,,,,,,,,,,,,,,,,,,,,,,,,,,,,,,,,,,,,,,,,,,,,,,,,,,,,,,,,,,,,,,
,,60768c72f4cc270141585ff8,65af57758ebdf7e17d6d5787,2024-01-23_08h07.52.166,bars,2023.2.3,Win32,60.24096386,657b66ea316d21385b68909f,0.0003,17.4743,y,17.4604,,,,,,,,,,,,,,,,,,,,,,,,,,,,,,,,,,,,,,,,,,,,,,,,,,,,,,,,,,,,,,,,,,,,,,,,,,,,,,,,,,,,,,,,,,,,,,,,
,,60768c72f4cc270141585ff8,65af57758ebdf7e17d6d5787,2024-01-23_08h07.52.166,bars,2023.2.3,Win32,60.24096386,657b66ea316d21385b68909f,,,,,,17.4744,52.6439,space,35.148,,,,,,,,,,,,,,,,,,,,,,,,,,,,,,,,,,,,,,,,,,,,,,,,,,,,,,,,,,,,,,,,,,,,,,,,,,,,,,,,,,,,,,,,,,,
,,60768c72f4cc270141585ff8,65af57758ebdf7e17d6d5787,2024-01-23_08h07.52.166,bars,2023.2.3,Win32,60.24096386,657b66ea316d21385b68909f,,,,,,,,,,,52.6466,53.6401,53.6402,54.1402,54.1403,54.3901,54.3902,11,11,67.0405,space,12.6179,,67.0407,79.3568,space,12.2876,,0,0,0,2,1,145,bars/single002.png,bars/mask003.png,,,,,,,,,,,,,,,,,,,,,,,,,,,,,,,,,,,,,,,,,,,,,,,,,,,,,,,,,,,,,,,,
,,60768c72f4cc270141585ff8,65af57758ebdf7e17d6d5787,2024-01-23_08h07.52.166,bars,2023.2.3,Win32,60.24096386,657b66ea316d21385b68909f,,,,,,,,,,,79.3616,80.3566,80.3566,80.8564,80.8564,81.1064,81.1064,163,163,83.8563,space,2.7212,,83.8563,88.0059,space,4.128,,0,1,1,0,1,150,bars/single000.png,bars/mask006.png,,,,,,,,,,,,,,,,,,,,,,,,,,,,,,,,,,,,,,,,,,,,,,,,,,,,,,,,,,,,,,,,
,,60768c72f4cc270141585ff8,65af57758ebdf7e17d6d5787,2024-01-23_08h07.52.166,bars,2023.2.3,Win32,60.24096386,657b66ea316d21385b68909f,,,,,,,,,,,88.0107,89.0104,89.0104,89.5106,89.5106,89.7562,89.7562,36,36,96.0395,space,6.2565,,96.0395,100.8892,space,4.8244,,0,2,2,7,1,45,bars/single007.png,bars/mask009.png,,,,,,,,,,,,,,,,,,,,,,,,,,,,,,,,,,,,,,,,,,,,,,,,,,,,,,,,,,,,,,,,
,,60768c72f4cc270141585ff8,65af57758ebdf7e17d6d5787,2024-01-23_08h07.52.166,bars,2023.2.3,Win32,60.24096386,657b66ea316d21385b68909f,,,,,,,,,,,100.8935,101.8892,101.8892,102.3892,102.3892,102.6395,102.6395,97,97,107.9558,space,5.3023,,107.9558,111.6059,space,3.6212,,0,3,3,4,1,95,bars/single004.png,bars/mask004.png,,,,,,,,,,,,,,,,,,,,,,,,,,,,,,,,,,,,,,,,,,,,,,,,,,,,,,,,,,,,,,,,
,,60768c72f4cc270141585ff8,65af57758ebdf7e17d6d5787,2024-01-23_08h07.52.166,bars,2023.2.3,Win32,60.24096386,657b66ea316d21385b68909f,,,,,,,,,,,111.6125,112.6058,112.6059,113.1057,113.1057,113.3559,113.3559,66,66,117.9724,space,4.5838,,117.9724,120.689,space,2.6881,,0,4,4,1,1,20,bars/single001.png,bars/mask006.png,,,,,,,,,,,,,,,,,,,,,,,,,,,,,,,,,,,,,,,,,,,,,,,,,,,,,,,,,,,,,,,,
,,60768c72f4cc270141585ff8,65af57758ebdf7e17d6d5787,2024-01-23_08h07.52.166,bars,2023.2.3,Win32,60.24096386,657b66ea316d21385b68909f,,,,,,,,,,,120.6893,121.689,121.689,122.1889,122.1889,122.4393,122.4393,127,127,127.8435,space,5.3995,,127.8436,130.4222,space,2.5527,,0,5,5,8,1,160,bars/single008.png,bars/mask004.png,,,,,,,,,,,,,,,,,,,,,,,,,,,,,,,,,,,,,,,,,,,,,,,,,,,,,,,,,,,,,,,,
,,60768c72f4cc270141585ff8,65af57758ebdf7e17d6d5787,2024-01-23_08h07.52.166,bars,2023.2.3,Win32,60.24096386,657b66ea316d21385b68909f,,,,,,,,,,,130.4225,131.41,131.41,131.9054,131.9055,132.1552,132.1553,29,29,139.5276,space,7.3511,,139.5276,143.4053,space,3.8505,,0,6,6,5,1,55,bars/single005.png,bars/mask008.png,,,,,,,,,,,,,,,,,,,,,,,,,,,,,,,,,,,,,,,,,,,,,,,,,,,,,,,,,,,,,,,,
,,60768c72f4cc270141585ff8,65af57758ebdf7e17d6d5787,2024-01-23_08h07.52.166,bars,2023.2.3,Win32,60.24096386,657b66ea316d21385b68909f,,,,,,,,,,,143.4056,144.4053,144.4053,144.9052,144.9052,145.1601,145.1602,29,29,151.3884,space,6.2134,,151.3884,153.505,space,2.0892,,0,7,7,9,1,20,bars/single009.png,bars/mask006.png,,,,,,,,,,,,,,,,,,,,,,,,,,,,,,,,,,,,,,,,,,,,,,,,,,,,,,,,,,,,,,,,
,,60768c72f4cc270141585ff8,65af57758ebdf7e17d6d5787,2024-01-23_08h07.52.166,bars,2023.2.3,Win32,60.24096386,657b66ea316d21385b68909f,,,,,,,,,,,153.5117,154.5054,154.5054,155.0049,155.0049,155.255,155.255,9,9,162.2379,space,6.9753,,162.238,164.388,space,2.1246,,0,8,8,3,1,20,bars/single003.png,bars/mask005.png,,,,,,,,,,,,,,,,,,,,,,,,,,,,,,,,,,,,,,,,,,,,,,,,,,,,,,,,,,,,,,,,
,,60768c72f4cc270141585ff8,65af57758ebdf7e17d6d5787,2024-01-23_08h07.52.166,bars,2023.2.3,Win32,60.24096386,657b66ea316d21385b68909f,,,,,,,,,,,164.3881,165.3881,165.3881,165.8883,165.8884,166.1384,166.1384,171,171,171.6093,space,5.4662,,171.6093,173.3046,space,1.6739,,0,9,9,6,1,175,bars/single006.png,bars/mask005.png,,,,,,,,,,,,,,,,,,,,,,,,,,,,,,,,,,,,,,,,,,,,,,,,,,,,,,,,,,,,,,,,
,,60768c72f4cc270141585ff8,65af57758ebdf7e17d6d5787,2024-01-23_08h07.52.166,bars,2023.2.3,Win32,60.24096386,657b66ea316d21385b68909f,,,,,,,,,,,,,,,,,,,,,,,,,,,,,,,,,,,,,173.3052,194.7044,space,21.3662,,,,,,,,,,,,,,,,,,,,,,,,,,,,,,,,,,,,,,,,,,,,,,,,,,,,,,,,,,,,
,,60768c72f4cc270141585ff8,65af57758ebdf7e17d6d5787,2024-01-23_08h07.52.166,bars,2023.2.3,Win32,60.24096386,657b66ea316d21385b68909f,,,,,,,,,,,,,,,,,,,,,,,,,,,,,,,,,,,,,,,,,,194.71,198.0211,left,3.2832,,198.0212,9,1,199.0209,0,0,0,0,1,9,1,9,2,,,,,,,,,,,,,,,,,,,,,,,,,,,,,,,,,,,,,,,,,
,,60768c72f4cc270141585ff8,65af57758ebdf7e17d6d5787,2024-01-23_08h07.52.166,bars,2023.2.3,Win32,60.24096386,657b66ea316d21385b68909f,,,,,,,,,,,,,,,,,,,,,,,,,,,,,,,,,,,,,,,,,,199.0211,202.6376,left,3.5918,,202.6376,10,1,203.6423,0,1,1,1,1,10,0,10,1,,,,,,,,,,,,,,,,,,,,,,,,,,,,,,,,,,,,,,,,,
,,60768c72f4cc270141585ff8,65af57758ebdf7e17d6d5787,2024-01-23_08h07.52.166,bars,2023.2.3,Win32,60.24096386,657b66ea316d21385b68909f,,,,,,,,,,,,,,,,,,,,,,,,,,,,,,,,,,,,,,,,,,203.6483,206.8041,right,3.1395,,206.8041,2,2,207.8041,0,2,2,2,1,10,2,10,2,,,,,,,,,,,,,,,,,,,,,,,,,,,,,,,,,,,,,,,,,
,,60768c72f4cc270141585ff8,65af57758ebdf7e17d6d5787,2024-01-23_08h07.52.166,bars,2023.2.3,Win32,60.24096386,657b66ea316d21385b68909f,,,,,,,,,,,,,,,,,,,,,,,,,,,,,,,,,,,,,,,,,,207.8109,208.8873,left,1.0563,,208.8874,7,1,209.8872,0,3,3,3,1,8,4,7,3,,,,,,,,,,,,,,,,,,,,,,,,,,,,,,,,,,,,,,,,,
,,60768c72f4cc270141585ff8,65af57758ebdf7e17d6d5787,2024-01-23_08h07.52.166,bars,2023.2.3,Win32,60.24096386,657b66ea316d21385b68909f,,,,,,,,,,,,,,,,,,,,,,,,,,,,,,,,,,,,,,,,,,209.8874,210.8707,left,0.9518,,210.8708,5,1,211.871,0,4,4,4,1,6,2,5,1,,,,,,,,,,,,,,,,,,,,,,,,,,,,,,,,,,,,,,,,,
,,60768c72f4cc270141585ff8,65af57758ebdf7e17d6d5787,2024-01-23_08h07.52.166,bars,2023.2.3,Win32,60.24096386,657b66ea316d21385b68909f,,,,,,,,,,,,,,,,,,,,,,,,,,,,,,,,,,,,,,,,,,211.8713,213.3375,right,1.4332,,213.3376,4,2,214.3376,0,5,5,5,1,4,4,4,4,,,,,,,,,,,,,,,,,,,,,,,,,,,,,,,,,,,,,,,,,
,,60768c72f4cc270141585ff8,65af57758ebdf7e17d6d5787,2024-01-23_08h07.52.166,bars,2023.2.3,Win32,60.24096386,657b66ea316d21385b68909f,,,,,,,,,,,,,,,,,,,,,,,,,,,,,,,,,,,,,,,,,,214.3378,215.1542,left,0.8084,,215.1542,1,1,216.1423,0,6,6,6,1,2,2,1,2,,,,,,,,,,,,,,,,,,,,,,,,,,,,,,,,,,,,,,,,,
,,60768c72f4cc270141585ff8,65af57758ebdf7e17d6d5787,2024-01-23_08h07.52.166,bars,2023.2.3,Win32,60.24096386,657b66ea316d21385b68909f,,,,,,,,,,,,,,,,,,,,,,,,,,,,,,,,,,,,,,,,,,216.1425,216.8544,right,0.6839,,216.8544,1,2,217.8539,0,7,7,7,1,0,0,0,1,,,,,,,,,,,,,,,,,,,,,,,,,,,,,,,,,,,,,,,,,
,,60768c72f4cc270141585ff8,65af57758ebdf7e17d6d5787,2024-01-23_08h07.52.166,bars,2023.2.3,Win32,60.24096386,657b66ea316d21385b68909f,,,,,,,,,,,,,,,,,,,,,,,,,,,,,,,,,,,,,,,,,,217.8541,218.5204,right,0.6436,,218.5204,0,2,219.5206,0,8,8,8,1,0,2,1,0,,,,,,,,,,,,,,,,,,,,,,,,,,,,,,,,,,,,,,,,,
,,60768c72f4cc270141585ff8,65af57758ebdf7e17d6d5787,2024-01-23_08h07.52.166,bars,2023.2.3,Win32,60.24096386,657b66ea316d21385b68909f,,,,,,,,,,,,,,,,,,,,,,,,,,,,,,,,,,,,,,,,,,219.5207,219.8705,right,0.3378,,219.8705,3,2,220.8708,0,9,9,9,1,2,4,2,3,,,,,,,,,,,,,,,,,,,,,,,,,,,,,,,,,,,,,,,,,
,,60768c72f4cc270141585ff8,65af57758ebdf7e17d6d5787,2024-01-23_08h07.52.166,bars,2023.2.3,Win32,60.24096386,657b66ea316d21385b68909f,,,,,,,,,,,,,,,,,,,,,,,,,,,,,,,,,,,,,,,,,,220.871,221.2539,left,0.353,,221.254,0,1,222.2579,0,10,10,10,1,0,2,0,3,,,,,,,,,,,,,,,,,,,,,,,,,,,,,,,,,,,,,,,,,
,,60768c72f4cc270141585ff8,65af57758ebdf7e17d6d5787,2024-01-23_08h07.52.166,bars,2023.2.3,Win32,60.24096386,657b66ea316d21385b68909f,,,,,,,,,,,,,,,,,,,,,,,,,,,,,,,,,,,,,,,,,,222.2581,222.8039,left,0.5298,,222.8039,0,1,223.8038,0,11,11,11,1,0,4,0,3,,,,,,,,,,,,,,,,,,,,,,,,,,,,,,,,,,,,,,,,,
,,60768c72f4cc270141585ff8,65af57758ebdf7e17d6d5787,2024-01-23_08h07.52.166,bars,2023.2.3,Win32,60.24096386,657b66ea316d21385b68909f,,,,,,,,,,,,,,,,,,,,,,,,,,,,,,,,,,,,,,,,,,223.804,224.3209,right,0.4846,,224.321,6,2,225.3203,0,12,12,12,1,2,6,1,6,,,,,,,,,,,,,,,,,,,,,,,,,,,,,,,,,,,,,,,,,
,,60768c72f4cc270141585ff8,65af57758ebdf7e17d6d5787,2024-01-23_08h07.52.166,bars,2023.2.3,Win32,60.24096386,657b66ea316d21385b68909f,,,,,,,,,,,,,,,,,,,,,,,,,,,,,,,,,,,,,,,,,,225.3206,225.8037,right,0.4588,,225.8037,3,2,226.8039,0,13,13,13,1,0,4,1,3,,,,,,,,,,,,,,,,,,,,,,,,,,,,,,,,,,,,,,,,,
,,60768c72f4cc270141585ff8,65af57758ebdf7e17d6d5787,2024-01-23_08h07.52.166,bars,2023.2.3,Win32,60.24096386,657b66ea316d21385b68909f,,,,,,,,,,,,,,,,,,,,,,,,,,,,,,,,,,,,,,,,,,226.8042,227.3581,left,0.5328,,227.3581,2,1,228.3537,0,14,14,14,1,2,6,2,7,,,,,,,,,,,,,,,,,,,,,,,,,,,,,,,,,,,,,,,,,
,,60768c72f4cc270141585ff8,65af57758ebdf7e17d6d5787,2024-01-23_08h07.52.166,bars,2023.2.3,Win32,60.24096386,657b66ea316d21385b68909f,,,,,,,,,,,,,,,,,,,,,,,,,,,,,,,,,,,,,,,,,,228.3538,229.9537,right,1.5678,,229.9537,9,2,230.9533,0,15,15,15,1,4,8,3,9,,,,,,,,,,,,,,,,,,,,,,,,,,,,,,,,,,,,,,,,,
,,60768c72f4cc270141585ff8,65af57758ebdf7e17d6d5787,2024-01-23_08h07.52.166,bars,2023.2.3,Win32,60.24096386,657b66ea316d21385b68909f,,,,,,,,,,,,,,,,,,,,,,,,,,,,,,,,,,,,,,,,,,230.9578,231.3036,left,0.3253,,231.3036,7,1,232.3035,0,16,16,16,1,6,6,7,7,,,,,,,,,,,,,,,,,,,,,,,,,,,,,,,,,,,,,,,,,
,,60768c72f4cc270141585ff8,65af57758ebdf7e17d6d5787,2024-01-23_08h07.52.166,bars,2023.2.3,Win32,60.24096386,657b66ea316d21385b68909f,,,,,,,,,,,,,,,,,,,,,,,,,,,,,,,,,,,,,,,,,,232.3036,232.6535,right,0.3168,,232.6535,5,2,233.6583,0,17,17,17,1,8,4,9,5,,,,,,,,,,,,,,,,,,,,,,,,,,,,,,,,,,,,,,,,,
,,60768c72f4cc270141585ff8,65af57758ebdf7e17d6d5787,2024-01-23_08h07.52.166,bars,2023.2.3,Win32,60.24096386,657b66ea316d21385b68909f,,,,,,,,,,,,,,,,,,,,,,,,,,,,,,,,,,,,,,,,,,233.6584,233.9744,left,0.2996,,233.9744,5,1,234.97,0,18,18,18,1,6,2,5,1,,,,,,,,,,,,,,,,,,,,,,,,,,,,,,,,,,,,,,,,,
,,60768c72f4cc270141585ff8,65af57758ebdf7e17d6d5787,2024-01-23_08h07.52.166,bars,2023.2.3,Win32,60.24096386,657b66ea316d21385b68909f,,,,,,,,,,,,,,,,,,,,,,,,,,,,,,,,,,,,,,,,,,234.9702,235.3368,right,0.3503,,235.3368,0,2,236.3388,0,19,19,19,1,8,0,7,0,,,,,,,,,,,,,,,,,,,,,,,,,,,,,,,,,,,,,,,,,
,,60768c72f4cc270141585ff8,65af57758ebdf7e17d6d5787,2024-01-23_08h07.52.166,bars,2023.2.3,Win32,60.24096386,657b66ea316d21385b68909f,,,,,,,,,,,,,,,,,,,,,,,,,,,,,,,,,,,,,,,,,,,,,,,,,,,,,,,,,,,,236.3391,260.6368,space,24.266,,,,,,,,,,,,,,,,,,,,,,,,,,,,,,,,,,,,,
,,60768c72f4cc270141585ff8,65af57758ebdf7e17d6d5787,2024-01-23_08h07.52.166,bars,2023.2.3,Win32,60.24096386,657b66ea316d21385b68909f,,,,,,,,,,,262.5394,263.5366,,,264.0365,264.2863,,167,167,,,,,,,,,,,,,,,,bars/000.png,bars/mask009.png,,,,,,,,,,,,1,2,,,,,,,5,5,4,5,,,,,,260.6451,262.5366,space,1.8782,,263.5368,264.0365,264.2865,270.5532,space,6.2404,,270.5534,53,22,271.553,271.5531,282.0531,space,10.4724,,0,0,0,0,1,40,145,,,,,,,,
,,60768c72f4cc270141585ff8,65af57758ebdf7e17d6d5787,2024-01-23_08h07.52.166,bars,2023.2.3,Win32,60.24096386,657b66ea316d21385b68909f,,,,,,,,,,,282.0603,283.0527,,,283.5527,283.8027,,45,45,,,,,,,,,,,,,,,,bars/043.png,bars/mask007.png,,,,,,,,,,,,1,1,,,,,,,3,3,2,2,,,,,,,,,,,283.0527,283.5526,283.8027,288.7693,space,4.9583,,288.7694,15,85,289.7692,289.7693,294.0696,space,4.2674,,0,1,1,1,1,30,130,,,,,,,,
,,60768c72f4cc270141585ff8,65af57758ebdf7e17d6d5787,2024-01-23_08h07.52.166,bars,2023.2.3,Win32,60.24096386,657b66ea316d21385b68909f,,,,,,,,,,,294.0763,295.0692,,,295.5695,295.8192,,151,151,,,,,,,,,,,,,,,,bars/003.png,bars/mask008.png,,,,,,,,,,,,1,2,,,,,,,5,1,6,1,,,,,,,,,,,295.0692,295.5694,295.8192,301.2522,space,5.4214,,301.2522,54,11,302.2523,302.2524,306.2355,space,3.9588,,0,2,2,2,1,25,140,,,,,,,,
,,60768c72f4cc270141585ff8,65af57758ebdf7e17d6d5787,2024-01-23_08h07.52.166,bars,2023.2.3,Win32,60.24096386,657b66ea316d21385b68909f,,,,,,,,,,,306.2399,307.2357,,,307.7357,307.9856,,131,131,,,,,,,,,,,,,,,,bars/023.png,bars/mask004.png,,,,,,,,,,,,2,2,,,,,,,3,3,5,4,,,,,,,,,,,307.2357,307.7357,307.9856,312.0521,space,4.0531,,312.0522,69,16,313.0396,313.0396,316.652,space,3.5916,,0,3,3,3,1,20,115,,,,,,,,
,,60768c72f4cc270141585ff8,65af57758ebdf7e17d6d5787,2024-01-23_08h07.52.166,bars,2023.2.3,Win32,60.24096386,657b66ea316d21385b68909f,,,,,,,,,,,316.6564,317.6524,,,318.1525,318.4023,,126,-54,,,,,,,,,,,,,,,,bars/040.png,bars/mask008.png,,,,,,,,,,,,1,1,,,,,,,1,5,1,5,,,,,,,,,,,317.6524,318.1525,318.4024,324.519,space,6.0891,,324.519,14,59,325.5189,325.5189,328.7353,space,3.1832,,0,4,4,4,1,140,5,,,,,,,,
,,60768c72f4cc270141585ff8,65af57758ebdf7e17d6d5787,2024-01-23_08h07.52.166,bars,2023.2.3,Win32,60.24096386,657b66ea316d21385b68909f,,,,,,,,,,,328.7419,329.7351,,,330.2355,330.4851,,41,41,,,,,,,,,,,,,,,,bars/007.png,bars/mask001.png,,,,,,,,,,,,1,2,,,,,,,0,3,0,2,,,,,,,,,,,329.7351,330.2355,330.4851,333.2016,space,2.6837,,333.2016,46,14,334.2014,334.2015,335.3351,space,1.1079,,0,5,5,5,1,175,55,,,,,,,,
,,60768c72f4cc270141585ff8,65af57758ebdf7e17d6d5787,2024-01-23_08h07.52.166,bars,2023.2.3,Win32,60.24096386,657b66ea316d21385b68909f,,,,,,,,,,,335.3353,336.3354,,,336.8354,337.085,,142,142,,,,,,,,,,,,,,,,bars/013.png,bars/mask003.png,,,,,,,,,,,,0,2,,,,,,,2,1,3,1,,,,,,,,,,,336.3355,336.8353,337.0851,341.9683,space,4.8599,,341.9684,67,48,342.9686,342.9686,346.4853,space,3.4837,,0,6,6,6,1,75,10,,,,,,,,
,,60768c72f4cc270141585ff8,65af57758ebdf7e17d6d5787,2024-01-23_08h07.52.166,bars,2023.2.3,Win32,60.24096386,657b66ea316d21385b68909f,,,,,,,,,,,346.4921,347.485,,,347.9852,348.2348,,98,98,,,,,,,,,,,,,,,,bars/008.png,bars/mask001.png,,,,,,,,,,,,3,1,,,,,,,4,3,5,3,,,,,,,,,,,347.4851,347.9851,348.2348,352.6681,space,4.4257,,352.6682,12,82,353.6684,353.6684,355.7181,space,2.0166,,0,7,7,7,1,110,0,,,,,,,,
,,60768c72f4cc270141585ff8,65af57758ebdf7e17d6d5787,2024-01-23_08h07.52.166,bars,2023.2.3,Win32,60.24096386,657b66ea316d21385b68909f,,,,,,,,,,,355.7184,356.7184,,,357.2184,357.4682,,49,229,,,,,,,,,,,,,,,,bars/012.png,bars/mask003.png,,,,,,,,,,,,0,2,,,,,,,2,5,1,6,,,,,,,,,,,356.7184,357.2184,357.4682,361.535,space,4.0512,,361.5351,41,34,362.5346,362.5346,362.9844,space,0.4248,,0,8,8,8,1,90,15,,,,,,,,
,,60768c72f4cc270141585ff8,65af57758ebdf7e17d6d5787,2024-01-23_08h07.52.166,bars,2023.2.3,Win32,60.24096386,657b66ea316d21385b68909f,,,,,,,,,,,362.9847,363.9846,,,364.4849,364.7348,,141,141,,,,,,,,,,,,,,,,bars/001.png,bars/mask008.png,,,,,,,,,,,,3,1,,,,,,,4,3,4,4,,,,,,,,,,,363.9846,364.4849,364.7348,367.8011,space,3.0517,,367.8011,11,56,368.8013,368.8013,370.2846,space,1.4497,,0,9,9,9,1,130,85,,,,,,,,
,,60768c72f4cc270141585ff8,65af57758ebdf7e17d6d5787,2024-01-23_08h07.52.166,bars,2023.2.3,Win32,60.24096386,657b66ea316d21385b68909f,,,,,,,,,,,370.2849,371.2843,,,371.7848,372.0343,,109,109,,,,,,,,,,,,,,,,bars/039.png,bars/mask000.png,,,,,,,,,,,,4,2,,,,,,,2,5,3,5,,,,,,,,,,,371.2843,371.7847,372.0343,376.151,space,4.1057,,376.151,66,4,377.1511,377.1511,378.5513,space,1.3668,,0,10,10,10,1,175,105,,,,,,,,
,,60768c72f4cc270141585ff8,65af57758ebdf7e17d6d5787,2024-01-23_08h07.52.166,bars,2023.2.3,Win32,60.24096386,657b66ea316d21385b68909f,,,,,,,,,,,378.5516,379.5512,,,380.0514,380.301,,41,41,,,,,,,,,,,,,,,,bars/025.png,bars/mask002.png,,,,,,,,,,,,6,2,,,,,,,0,7,0,6,,,,,,,,,,,379.5513,380.0513,380.301,383.1342,space,2.8259,,383.1343,64,1,384.1345,384.1345,385.8012,space,1.6335,,0,11,11,11,1,105,40,,,,,,,,
,,60768c72f4cc270141585ff8,65af57758ebdf7e17d6d5787,2024-01-23_08h07.52.166,bars,2023.2.3,Win32,60.24096386,657b66ea316d21385b68909f,,,,,,,,,,,385.8015,386.8011,,,387.3007,387.5512,,16,16,,,,,,,,,,,,,,,,bars/035.png,bars/mask008.png,,,,,,,,,,,,0,1,,,,,,,0,9,0,8,,,,,,,,,,,386.8012,387.3007,387.5512,391.5342,space,3.9664,,391.5342,21,44,392.5339,392.534,394.7843,space,2.2163,,0,12,12,12,1,175,60,,,,,,,,
,,60768c72f4cc270141585ff8,65af57758ebdf7e17d6d5787,2024-01-23_08h07.52.166,bars,2023.2.3,Win32,60.24096386,657b66ea316d21385b68909f,,,,,,,,,,,394.7846,395.7843,,,396.2843,396.5343,,141,141,,,,,,,,,,,,,,,,bars/019.png,bars/mask000.png,,,,,,,,,,,,0,2,,,,,,,2,7,3,7,,,,,,,,,,,395.7843,396.2843,396.5343,399.9841,space,3.4328,,399.9841,84,36,400.9838,400.9838,402.3337,space,1.3277,,0,13,13,13,1,45,105,,,,,,,,
,,60768c72f4cc270141585ff8,65af57758ebdf7e17d6d5787,2024-01-23_08h07.52.166,bars,2023.2.3,Win32,60.24096386,657b66ea316d21385b68909f,,,,,,,,,,,402.334,403.3342,,,403.8338,404.089,,49,49,,,,,,,,,,,,,,,,bars/035.png,bars/mask006.png,,,,,,,,,,,,6,2,,,,,,,0,9,0,10,,,,,,,,,,,403.3342,403.8338,404.089,409.4337,space,5.3286,,409.4337,54,11,410.434,410.434,412.0169,space,1.5547,,0,14,14,14,1,175,60,,,,,,,,
,,60768c72f4cc270141585ff8,65af57758ebdf7e17d6d5787,2024-01-23_08h07.52.166,bars,2023.2.3,Win32,60.24096386,657b66ea316d21385b68909f,,,,,,,,,,,412.0171,413.0169,,,413.5173,413.7669,,48,228,,,,,,,,,,,,,,,,bars/026.png,bars/mask008.png,,,,,,,,,,,,1,1,,,,,,,0,7,1,7,,,,,,,,,,,413.0169,413.5173,413.7669,419.3379,space,5.5664,,419.3379,13,37,420.3335,420.3335,421.184,space,0.817,,0,15,15,15,1,35,85,,,,,,,,
,,60768c72f4cc270141585ff8,65af57758ebdf7e17d6d5787,2024-01-23_08h07.52.166,bars,2023.2.3,Win32,60.24096386,657b66ea316d21385b68909f,,,,,,,,,,,421.1842,422.1839,,,422.6838,422.9337,,61,61,,,,,,,,,,,,,,,,bars/035.png,bars/mask006.png,,,,,,,,,,,,6,2,,,,,,,0,9,2,6,,,,,,,,,,,422.1839,422.6838,422.9337,425.0668,space,2.1167,,425.0668,66,1,426.0667,426.0667,426.9167,space,0.8165,,0,16,16,16,1,175,60,,,,,,,,
,,60768c72f4cc270141585ff8,65af57758ebdf7e17d6d5787,2024-01-23_08h07.52.166,bars,2023.2.3,Win32,60.24096386,657b66ea316d21385b68909f,,,,,,,,,,,426.9169,427.917,,,428.4047,428.6503,,153,153,,,,,,,,,,,,,,,,bars/024.png,bars/mask006.png,,,,,,,,,,,,3,2,,,,,,,2,7,2,7,,,,,,,,,,,427.917,428.4047,428.6504,432.3833,space,3.7207,,432.3833,33,17,433.3835,433.3835,434.1552,space,0.7502,,0,17,17,17,1,120,170,,,,,,,,
,,60768c72f4cc270141585ff8,65af57758ebdf7e17d6d5787,2024-01-23_08h07.52.166,bars,2023.2.3,Win32,60.24096386,657b66ea316d21385b68909f,,,,,,,,,,,434.1553,435.1503,,,435.6501,435.8999,,52,52,,,,,,,,,,,,,,,,bars/026.png,bars/mask004.png,,,,,,,,,,,,0,1,,,,,,,0,5,0,4,,,,,,,,,,,435.1503,435.6501,435.9,438.4499,space,2.537,,438.45,17,33,439.4497,439.4498,440.8999,space,1.4239,,0,18,18,18,1,35,85,,,,,,,,
,,60768c72f4cc270141585ff8,65af57758ebdf7e17d6d5787,2024-01-23_08h07.52.166,bars,2023.2.3,Win32,60.24096386,657b66ea316d21385b68909f,,,,,,,,,,,440.9001,441.8883,,,442.3835,442.6331,,37,217,,,,,,,,,,,,,,,,bars/047.png,bars/mask002.png,,,,,,,,,,,,0,1,,,,,,,2,7,1,8,,,,,,,,,,,441.8883,442.3834,442.6331,448.6662,space,6.0248,,448.6662,22,33,449.6666,449.6667,450.0664,space,0.3669,,0,19,19,19,1,15,70,,,,,,,,
,,60768c72f4cc270141585ff8,65af57758ebdf7e17d6d5787,2024-01-23_08h07.52.166,bars,2023.2.3,Win32,60.24096386,657b66ea316d21385b68909f,,,,,,,,,,,450.0667,451.0709,,,451.5665,451.8166,,172,172,,,,,,,,,,,,,,,,bars/038.png,bars/mask004.png,,,,,,,,,,,,0,1,,,,,,,0,5,0,5,,,,,,,,,,,451.071,451.5665,451.8166,457.7162,space,5.8837,,457.7163,7,78,458.716,458.716,459.9161,space,1.1778,,0,20,20,20,1,165,70,,,,,,,,
,,60768c72f4cc270141585ff8,65af57758ebdf7e17d6d5787,2024-01-23_08h07.52.166,bars,2023.2.3,Win32,60.24096386,657b66ea316d21385b68909f,,,,,,,,,,,459.9163,460.9163,,,461.4164,461.6665,,88,88,,,,,,,,,,,,,,,,bars/002.png,bars/mask009.png,,,,,,,,,,,,4,2,,,,,,,2,3,2,4,,,,,,,,,,,460.9163,461.4164,461.6665,465.883,space,4.2,,465.883,42,3,466.8828,466.8828,469.866,space,2.9592,,0,21,21,21,1,130,85,,,,,,,,
,,60768c72f4cc270141585ff8,65af57758ebdf7e17d6d5787,2024-01-23_08h07.52.166,bars,2023.2.3,Win32,60.24096386,657b66ea316d21385b68909f,,,,,,,,,,,469.8663,470.866,,,471.3663,471.6162,,41,41,,,,,,,,,,,,,,,,bars/026.png,bars/mask009.png,,,,,,,,,,,,2,1,,,,,,,4,5,3,4,,,,,,,,,,,470.866,471.3662,471.6162,478.3664,space,6.7334,,478.3664,6,44,479.3657,479.3658,479.6491,space,0.2508,,0,22,22,22,1,35,85,,,,,,,,
,,60768c72f4cc270141585ff8,65af57758ebdf7e17d6d5787,2024-01-23_08h07.52.166,bars,2023.2.3,Win32,60.24096386,657b66ea316d21385b68909f,,,,,,,,,,,479.6492,480.6374,,,481.1326,481.3824,,178,178,,,,,,,,,,,,,,,,bars/024.png,bars/mask001.png,,,,,,,,,,,,1,2,,,,,,,6,3,5,2,,,,,,,,,,,480.6375,481.1326,481.3824,485.5156,space,4.118,,485.5156,58,8,486.5157,486.5157,486.8823,space,0.344,,0,23,23,23,1,120,170,,,,,,,,
,,60768c72f4cc270141585ff8,65af57758ebdf7e17d6d5787,2024-01-23_08h07.52.166,bars,2023.2.3,Win32,60.24096386,657b66ea316d21385b68909f,,,,,,,,,,,486.8825,487.8826,,,488.3824,488.6327,,116,116,,,,,,,,,,,,,,,,bars/037.png,bars/mask009.png,,,,,,,,,,,,2,2,,,,,,,4,1,4,3,,,,,,,,,,,487.8827,488.3824,488.6328,491.499,space,2.8407,,491.499,34,11,492.4988,492.4988,492.8155,space,0.2949,,0,24,24,24,1,150,105,,,,,,,,
,,60768c72f4cc270141585ff8,65af57758ebdf7e17d6d5787,2024-01-23_08h07.52.166,bars,2023.2.3,Win32,60.24096386,657b66ea316d21385b68909f,,,,,,,,,,,492.8156,493.8041,,,494.2992,494.5492,,178,178,,,,,,,,,,,,,,,,bars/036.png,bars/mask000.png,,,,,,,,,,,,0,2,,,,,,,2,0,1,0,,,,,,,,,,,493.8041,494.2991,494.5492,497.6821,space,3.1246,,497.6821,33,22,498.6823,498.6823,499.1819,space,0.4693,,0,25,25,25,1,145,20,,,,,,,,
,,60768c72f4cc270141585ff8,65af57758ebdf7e17d6d5787,2024-01-23_08h07.52.166,bars,2023.2.3,Win32,60.24096386,657b66ea316d21385b68909f,,,,,,,,,,,499.182,500.1706,,,500.6653,500.9036,,96,276,,,,,,,,,,,,,,,,bars/028.png,bars/mask004.png,,,,,,,,,,,,0,2,,,,,,,0,0,1,1,,,,,,,,,,,500.1706,500.6653,500.9036,507.6818,space,6.7609,,507.6818,51,24,508.682,508.682,509.0323,space,0.3164,,0,26,26,26,1,45,120,,,,,,,,
,,60768c72f4cc270141585ff8,65af57758ebdf7e17d6d5787,2024-01-23_08h07.52.166,bars,2023.2.3,Win32,60.24096386,657b66ea316d21385b68909f,,,,,,,,,,,509.0326,510.0323,,,510.5322,510.7821,,112,-68,,,,,,,,,,,,,,,,bars/028.png,bars/mask009.png,,,,,,,,,,,,0,2,,,,,,,0,0,1,0,,,,,,,,,,,510.0323,510.5322,510.7822,515.0985,space,4.3044,,515.0985,67,8,516.0987,516.0987,516.4484,space,0.3224,,0,27,27,27,1,45,120,,,,,,,,
,,60768c72f4cc270141585ff8,65af57758ebdf7e17d6d5787,2024-01-23_08h07.52.166,bars,2023.2.3,Win32,60.24096386,657b66ea316d21385b68909f,,,,,,,,,,,516.4486,517.4489,,,517.9484,518.1987,,4,4,,,,,,,,,,,,,,,,bars/016.png,bars/mask001.png,,,,,,,,,,,,0,2,,,,,,,0,0,0,0,,,,,,,,,,,517.4489,517.9483,518.1987,520.5317,space,2.3264,,520.5318,36,19,521.532,521.532,523.0814,space,1.5197,,0,28,28,28,1,40,165,,,,,,,,
,,60768c72f4cc270141585ff8,65af57758ebdf7e17d6d5787,2024-01-23_08h07.52.166,bars,2023.2.3,Win32,60.24096386,657b66ea316d21385b68909f,,,,,,,,,,,523.0818,524.0817,,,524.5815,524.8316,,9,189,,,,,,,,,,,,,,,,bars/032.png,bars/mask001.png,,,,,,,,,,,,1,2,,,,,,,0,2,0,2,,,,,,,,,,,524.0818,524.5815,524.8316,529.8816,space,5.0423,,529.8817,64,11,530.882,530.882,531.2813,space,0.375,,0,29,29,29,1,125,20,,,,,,,,
,,60768c72f4cc270141585ff8,65af57758ebdf7e17d6d5787,2024-01-23_08h07.52.166,bars,2023.2.3,Win32,60.24096386,657b66ea316d21385b68909f,,,,,,,,,,,531.2815,532.2815,,,532.7814,533.0318,,136,136,,,,,,,,,,,,,,,,bars/043.png,bars/mask005.png,,,,,,,,,,,,2,2,,,,,,,2,4,3,3,,,,,,,,,,,532.2816,532.7814,533.0318,536.298,space,3.2612,,536.298,74,6,537.2984,537.2984,537.7148,space,0.3894,,0,30,30,30,1,30,130,,,,,,,,
,,60768c72f4cc270141585ff8,65af57758ebdf7e17d6d5787,2024-01-23_08h07.52.166,bars,2023.2.3,Win32,60.24096386,657b66ea316d21385b68909f,,,,,,,,,,,537.715,538.7032,,,539.1984,539.4482,,31,211,,,,,,,,,,,,,,,,bars/012.png,bars/mask002.png,,,,,,,,,,,,1,2,,,,,,,4,2,4,2,,,,,,,,,,,538.7032,539.1984,539.4482,550.8647,space,11.4119,,550.8647,59,16,551.8645,551.8645,552.2144,space,0.326,,0,31,31,31,1,90,15,,,,,,,,
,,60768c72f4cc270141585ff8,65af57758ebdf7e17d6d5787,2024-01-23_08h07.52.166,bars,2023.2.3,Win32,60.24096386,657b66ea316d21385b68909f,,,,,,,,,,,552.2146,553.2148,,,553.7148,553.9645,,37,217,,,,,,,,,,,,,,,,bars/031.png,bars/mask001.png,,,,,,,,,,,,4,2,,,,,,,6,4,6,4,,,,,,,,,,,553.2148,553.7148,553.9645,561.7643,space,7.7905,,561.7643,83,2,562.7646,562.7646,563.131,space,0.34,,0,32,32,32,1,120,35,,,,,,,,
,,60768c72f4cc270141585ff8,65af57758ebdf7e17d6d5787,2024-01-23_08h07.52.166,bars,2023.2.3,Win32,60.24096386,657b66ea316d21385b68909f,,,,,,,,,,,563.1312,564.1313,,,564.6309,564.8812,,110,110,,,,,,,,,,,,,,,,bars/002.png,bars/mask004.png,,,,,,,,,,,,2,1,,,,,,,8,6,7,5,,,,,,,,,,,564.1313,564.6309,564.8813,569.7812,space,4.8839,,569.7812,20,25,570.7859,570.786,571.1475,space,0.341,,0,33,33,33,1,130,85,,,,,,,,
,,60768c72f4cc270141585ff8,65af57758ebdf7e17d6d5787,2024-01-23_08h07.52.166,bars,2023.2.3,Win32,60.24096386,657b66ea316d21385b68909f,,,,,,,,,,,571.1477,572.1519,,,572.6471,572.8972,,20,20,,,,,,,,,,,,,,,,bars/029.png,bars/mask002.png,,,,,,,,,,,,1,2,,,,,,,6,4,6,5,,,,,,,,,,,572.152,572.6471,572.8972,576.1638,space,3.237,,576.1638,70,25,577.1635,577.1635,577.4804,space,0.2839,,0,34,34,34,1,90,45,,,,,,,,
,,60768c72f4cc270141585ff8,65af57758ebdf7e17d6d5787,2024-01-23_08h07.52.166,bars,2023.2.3,Win32,60.24096386,657b66ea316d21385b68909f,,,,,,,,,,,577.4805,578.4802,,,578.9851,579.235,,58,238,,,,,,,,,,,,,,,,bars/007.png,bars/mask006.png,,,,,,,,,,,,3,2,,,,,,,8,2,7,3,,,,,,,,,,,578.4803,578.9851,579.235,583.6637,space,4.4145,,583.6637,63,3,584.6639,584.6639,585.1135,space,0.4193,,0,35,35,35,1,175,55,,,,,,,,
,,60768c72f4cc270141585ff8,65af57758ebdf7e17d6d5787,2024-01-23_08h07.52.166,bars,2023.2.3,Win32,60.24096386,657b66ea316d21385b68909f,,,,,,,,,,,585.1138,586.1136,,,586.6138,586.8638,,150,150,,,,,,,,,,,,,,,,bars/005.png,bars/mask007.png,,,,,,,,,,,,0,2,,,,,,,6,0,7,0,,,,,,,,,,,586.1136,586.6138,586.8638,592.1135,space,5.245,,592.1135,40,10,593.1136,593.1136,597.3136,space,4.1667,,0,36,36,36,1,10,140,,,,,,,,
,,60768c72f4cc270141585ff8,65af57758ebdf7e17d6d5787,2024-01-23_08h07.52.166,bars,2023.2.3,Win32,60.24096386,657b66ea316d21385b68909f,,,,,,,,,,,597.318,598.3139,,,598.8136,599.0636,,36,36,,,,,,,,,,,,,,,,bars/029.png,bars/mask009.png,,,,,,,,,,,,1,2,,,,,,,4,2,3,1,,,,,,,,,,,598.3139,598.8136,599.0636,604.2965,space,5.2179,,604.2965,54,9,605.2848,605.2849,605.6466,space,0.3403,,0,37,37,37,1,90,45,,,,,,,,
,,60768c72f4cc270141585ff8,65af57758ebdf7e17d6d5787,2024-01-23_08h07.52.166,bars,2023.2.3,Win32,60.24096386,657b66ea316d21385b68909f,,,,,,,,,,,605.6469,606.6465,,,607.1468,607.3968,,152,152,,,,,,,,,,,,,,,,bars/024.png,bars/mask008.png,,,,,,,,,,,,2,2,,,,,,,2,4,1,4,,,,,,,,,,,606.6465,607.1468,607.3968,609.8638,space,2.4501,,609.8639,32,18,610.8635,610.8635,611.4801,space,0.5921,,0,38,38,38,1,120,170,,,,,,,,
,,60768c72f4cc270141585ff8,65af57758ebdf7e17d6d5787,2024-01-23_08h07.52.166,bars,2023.2.3,Win32,60.24096386,657b66ea316d21385b68909f,,,,,,,,,,,611.4803,612.4798,,,612.9799,613.2178,,127,127,,,,,,,,,,,,,,,,bars/020.png,bars/mask003.png,,,,,,,,,,,,2,1,,,,,,,4,6,4,6,,,,,,,,,,,612.4798,612.9798,613.2178,619.4511,space,6.2294,,619.4512,12,43,620.4463,620.4464,623.163,space,2.685,,0,39,39,39,1,115,170,,,,,,,,
,,60768c72f4cc270141585ff8,65af57758ebdf7e17d6d5787,2024-01-23_08h07.52.166,bars,2023.2.3,Win32,60.24096386,657b66ea316d21385b68909f,,,,,,,,,,,623.1674,624.1631,,,624.6515,624.8963,,149,149,,,,,,,,,,,,,,,,bars/043.png,bars/mask003.png,,,,,,,,,,,,1,2,,,,,,,2,4,2,2,,,,,,,,,,,624.1631,624.6515,624.8963,629.0297,space,4.117,,629.0297,61,19,630.0296,630.0296,649.9793,space,19.921,,0,40,40,40,1,30,130,,,,,,,,
,,60768c72f4cc270141585ff8,65af57758ebdf7e17d6d5787,2024-01-23_08h07.52.166,bars,2023.2.3,Win32,60.24096386,657b66ea316d21385b68909f,,,,,,,,,,,649.9843,650.9795,,,651.4794,651.7294,,174,-6,,,,,,,,,,,,,,,,bars/016.png,bars/mask003.png,,,,,,,,,,,,1,2,,,,,,,4,2,7,2,,,,,,,,,,,650.9795,651.4794,651.7294,657.2486,space,5.5147,,657.2487,46,9,658.2457,658.2457,659.1958,space,0.9279,,0,41,41,41,1,40,165,,,,,,,,
,,60768c72f4cc270141585ff8,65af57758ebdf7e17d6d5787,2024-01-23_08h07.52.166,bars,2023.2.3,Win32,60.24096386,657b66ea316d21385b68909f,,,,,,,,,,,659.196,660.1961,,,660.6962,660.9461,,128,128,,,,,,,,,,,,,,,,bars/028.png,bars/mask000.png,,,,,,,,,,,,4,2,,,,,,,6,4,7,5,,,,,,,,,,,660.1962,660.6962,660.9462,675.479,space,14.5201,,675.479,83,8,676.4792,676.4792,677.0289,space,0.5165,,0,42,42,42,1,45,120,,,,,,,,
,,60768c72f4cc270141585ff8,65af57758ebdf7e17d6d5787,2024-01-23_08h07.52.166,bars,2023.2.3,Win32,60.24096386,657b66ea316d21385b68909f,,,,,,,,,,,677.0291,678.0289,,,678.5174,678.7625,,34,34,,,,,,,,,,,,,,,,bars/022.png,bars/mask008.png,,,,,,,,,,,,2,2,,,,,,,4,2,4,3,,,,,,,,,,,678.0289,678.5174,678.7625,681.4459,space,2.6672,,681.446,61,14,682.4455,682.4455,683.1788,space,0.7001,,0,43,43,43,1,95,20,,,,,,,,
,,60768c72f4cc270141585ff8,65af57758ebdf7e17d6d5787,2024-01-23_08h07.52.166,bars,2023.2.3,Win32,60.24096386,657b66ea316d21385b68909f,,,,,,,,,,,683.1789,684.1788,,,684.6788,684.9288,,145,145,,,,,,,,,,,,,,,,bars/023.png,bars/mask003.png,,,,,,,,,,,,0,2,,,,,,,6,0,5,1,,,,,,,,,,,684.1788,684.6787,684.9288,686.8121,space,1.8703,,686.8122,55,30,687.8123,687.8123,688.5619,space,0.7274,,0,44,44,44,1,20,115,,,,,,,,
,,60768c72f4cc270141585ff8,65af57758ebdf7e17d6d5787,2024-01-23_08h07.52.166,bars,2023.2.3,Win32,60.24096386,657b66ea316d21385b68909f,,,,,,,,,,,688.562,689.5623,,,690.062,690.3123,,140,140,,,,,,,,,,,,,,,,bars/037.png,bars/mask000.png,,,,,,,,,,,,2,1,,,,,,,4,0,3,0,,,,,,,,,,,689.5623,690.062,690.3124,693.145,space,2.8248,,693.1451,10,35,694.1455,694.1456,694.662,space,0.4895,,0,45,45,45,1,150,105,,,,,,,,
,,60768c72f4cc270141585ff8,65af57758ebdf7e17d6d5787,2024-01-23_08h07.52.166,bars,2023.2.3,Win32,60.24096386,657b66ea316d21385b68909f,,,,,,,,,,,694.6623,695.6622,,,696.1669,696.412,,53,53,,,,,,,,,,,,,,,,bars/005.png,bars/mask003.png,,,,,,,,,,,,0,1,,,,,,,6,2,6,1,,,,,,,,,,,695.6622,696.1669,696.412,698.4785,space,2.0515,,698.4785,43,87,699.4784,699.4784,702.1622,space,2.6498,,0,46,46,46,1,10,140,,,,,,,,
,,60768c72f4cc270141585ff8,65af57758ebdf7e17d6d5787,2024-01-23_08h07.52.166,bars,2023.2.3,Win32,60.24096386,657b66ea316d21385b68909f,,,,,,,,,,,702.1624,703.1621,,,703.6619,703.9121,,153,153,,,,,,,,,,,,,,,,bars/004.png,bars/mask006.png,,,,,,,,,,,,0,2,,,,,,,4,4,3,5,,,,,,,,,,,703.1621,703.6619,703.9121,706.8616,space,2.9372,,706.8616,52,28,707.8619,707.862,708.2615,space,0.3769,,0,47,47,47,1,25,125,,,,,,,,
,,60768c72f4cc270141585ff8,65af57758ebdf7e17d6d5787,2024-01-23_08h07.52.166,bars,2023.2.3,Win32,60.24096386,657b66ea316d21385b68909f,,,,,,,,,,,708.2617,709.2619,,,709.7635,710.0115,,14,194,,,,,,,,,,,,,,,,bars/022.png,bars/mask009.png,,,,,,,,,,,,2,2,,,,,,,2,2,2,3,,,,,,,,,,,709.2619,709.7635,710.0116,712.8617,space,2.8335,,712.8617,81,6,713.8618,713.8618,714.5999,space,0.7167,,0,48,48,48,1,95,20,,,,,,,,
,,60768c72f4cc270141585ff8,65af57758ebdf7e17d6d5787,2024-01-23_08h07.52.166,bars,2023.2.3,Win32,60.24096386,657b66ea316d21385b68909f,,,,,,,,,,,714.6001,715.5951,,,716.0952,716.35,,45,45,,,,,,,,,,,,,,,,bars/019.png,bars/mask007.png,,,,,,,,,,,,0,1,,,,,,,0,0,0,0,,,,,,,,,,,715.5951,716.0952,716.35,722.7279,space,6.3674,,722.7279,0,60,723.728,723.728,726.1613,space,2.3997,,0,49,49,49,1,45,105,,,,,,,,
,,60768c72f4cc270141585ff8,65af57758ebdf7e17d6d5787,2024-01-23_08h07.52.166,bars,2023.2.3,Win32,60.24096386,657b66ea316d21385b68909f,,,,,,,,,,,,,,,,,,,,,,,,,,,,,,,,,,,,,,,,,,,,,,,,,,,,,,,,,,,,,,,,,,,,,,,,,,,,,,,,,,,,,,,,,,,,,726.1616,786.1605,0,0,0,4,1,sequence_tables/blk014.csv
,,60768c72f4cc270141585ff8,65af57758ebdf7e17d6d5787,2024-01-23_08h07.52.166,bars,2023.2.3,Win32,60.24096386,657b66ea316d21385b68909f,,,,,,,,,,,832.2851,833.2761,,,833.7764,834.0262,,103,103,,,,,,,,,,,,,,,,bars/042.png,bars/mask000.png,,,,,,,,,,,,0,2,,,,,,,5,5,5,2,,,,,,786.1654,832.2762,space,46.0829,,833.2762,833.7764,834.0262,837.3926,space,3.3567,,837.3927,42,28,838.3929,838.3929,838.4005,,,,0,0,0,0,1,145,75,,,,,,,,
,,60768c72f4cc270141585ff8,65af57758ebdf7e17d6d5787,2024-01-23_08h07.52.166,bars,2023.2.3,Win32,60.24096386,657b66ea316d21385b68909f,,,,,,,,,,,838.4006,839.3925,,,839.893,840.1425,,147,147,,,,,,,,,,,,,,,,bars/034.png,bars/mask005.png,,,,,,,,,,,,2,1,,,,,,,7,3,8,4,,,,,,,,,,,839.3925,839.8929,840.1425,844.6092,space,4.4334,,844.6093,22,82,845.6095,845.6096,845.6171,,,,0,1,1,1,1,125,65,,,,,,,,
,,60768c72f4cc270141585ff8,65af57758ebdf7e17d6d5787,2024-01-23_08h07.52.166,bars,2023.2.3,Win32,60.24096386,657b66ea316d21385b68909f,,,,,,,,,,,845.6172,846.6095,,,847.1095,847.3592,,173,173,,,,,,,,,,,,,,,,bars/031.png,bars/mask006.png,,,,,,,,,,,,0,2,,,,,,,5,5,4,6,,,,,,,,,,,846.6095,847.1095,847.3592,848.0924,space,0.7262,,848.0924,53,42,849.0922,849.0922,849.0931,,,,0,2,2,2,1,120,35,,,,,,,,
,,60768c72f4cc270141585ff8,65af57758ebdf7e17d6d5787,2024-01-23_08h07.52.166,bars,2023.2.3,Win32,60.24096386,657b66ea316d21385b68909f,,,,,,,,,,,849.0932,850.0928,,,850.5927,850.8428,,32,212,,,,,,,,,,,,,,,,bars/028.png,bars/mask001.png,,,,,,,,,,,,4,1,,,,,,,7,7,7,7,,,,,,,,,,,850.0928,850.5927,850.8428,853.9924,space,3.1429,,853.9925,13,88,854.9927,854.9928,855.0002,,,,0,3,3,3,1,45,120,,,,,,,,
,,60768c72f4cc270141585ff8,65af57758ebdf7e17d6d5787,2024-01-23_08h07.52.166,bars,2023.2.3,Win32,60.24096386,657b66ea316d21385b68909f,,,,,,,,,,,855.0004,855.9923,,,856.4923,856.7471,,133,133,,,,,,,,,,,,,,,,bars/007.png,bars/mask004.png,,,,,,,,,,,,0,1,,,,,,,5,5,6,4,,,,,,,,,,,855.9923,856.4923,856.7471,865.4925,space,8.7332,,865.4926,42,78,866.4922,866.4922,866.4991,,,,0,4,4,4,1,175,55,,,,,,,,
,,60768c72f4cc270141585ff8,65af57758ebdf7e17d6d5787,2024-01-23_08h07.52.166,bars,2023.2.3,Win32,60.24096386,657b66ea316d21385b68909f,,,,,,,,,,,866.4992,867.4924,,,867.9924,868.242,,132,132,,,,,,,,,,,,,,,,bars/012.png,bars/mask009.png,,,,,,,,,,,,0,1,,,,,,,7,7,8,8,,,,,,,,,,,867.4924,867.9924,868.242,873.7924,space,5.5165,,873.7924,42,63,874.7805,874.7805,874.7876,,,,0,5,5,5,1,90,15,,,,,,,,
,,60768c72f4cc270141585ff8,65af57758ebdf7e17d6d5787,2024-01-23_08h07.52.166,bars,2023.2.3,Win32,60.24096386,657b66ea316d21385b68909f,,,,,,,,,,,874.7877,875.7923,,,876.2922,876.5422,,135,135,,,,,,,,,,,,,,,,bars/026.png,bars/mask002.png,,,,,,,,,,,,0,2,,,,,,,9,9,7,9,,,,,,,,,,,875.7923,876.2922,876.5422,881.7085,space,5.1501,,881.7085,80,50,882.7082,882.7082,882.7135,,,,0,6,6,6,1,35,85,,,,,,,,
,,60768c72f4cc270141585ff8,65af57758ebdf7e17d6d5787,2024-01-23_08h07.52.166,bars,2023.2.3,Win32,60.24096386,657b66ea316d21385b68909f,,,,,,,,,,,882.7136,883.7088,,,884.2084,884.4636,,147,147,,,,,,,,,,,,,,,,bars/038.png,bars/mask004.png,,,,,,,,,,,,4,1,,,,,,,10,10,10,8,,,,,,,,,,,883.7088,884.2084,884.4636,888.4752,space,3.9968,,888.4752,18,77,889.475,889.475,889.4825,,,,0,7,7,7,1,165,70,,,,,,,,
,,60768c72f4cc270141585ff8,65af57758ebdf7e17d6d5787,2024-01-23_08h07.52.166,bars,2023.2.3,Win32,60.24096386,657b66ea316d21385b68909f,,,,,,,,,,,889.4827,890.4754,,,890.9754,891.2252,,32,212,,,,,,,,,,,,,,,,bars/032.png,bars/mask007.png,,,,,,,,,,,,6,2,,,,,,,10,10,10,10,,,,,,,,,,,890.4754,890.9754,891.2252,896.2915,space,5.0505,,896.2916,87,12,897.2916,897.2916,897.2965,,,,0,8,8,8,1,125,20,,,,,,,,
,,60768c72f4cc270141585ff8,65af57758ebdf7e17d6d5787,2024-01-23_08h07.52.166,bars,2023.2.3,Win32,60.24096386,657b66ea316d21385b68909f,,,,,,,,,,,897.2966,898.2916,,,898.7913,899.0413,,27,207,,,,,,,,,,,,,,,,bars/035.png,bars/mask005.png,,,,,,,,,,,,0,1,,,,,,,8,10,9,10,,,,,,,,,,,898.2916,898.7913,899.0413,903.2247,space,4.1595,,903.2247,32,33,904.2249,904.2249,904.2297,,,,0,9,9,9,1,175,60,,,,,,,,
,,60768c72f4cc270141585ff8,65af57758ebdf7e17d6d5787,2024-01-23_08h07.52.166,bars,2023.2.3,Win32,60.24096386,657b66ea316d21385b68909f,,,,,,,,,,,904.2298,905.2251,,,905.7249,905.9748,,53,53,,,,,,,,,,,,,,,,bars/026.png,bars/mask002.png,,,,,,,,,,,,3,1,,,,,,,6,8,7,7,,,,,,,,,,,905.2251,905.7248,905.9749,909.4079,space,3.4057,,909.4079,18,32,910.4079,910.408,910.4124,,,,0,10,10,10,1,35,85,,,,,,,,
,,60768c72f4cc270141585ff8,65af57758ebdf7e17d6d5787,2024-01-23_08h07.52.166,bars,2023.2.3,Win32,60.24096386,657b66ea316d21385b68909f,,,,,,,,,,,910.4125,911.4083,,,911.908,912.158,,131,131,,,,,,,,,,,,,,,,bars/049.png,bars/mask005.png,,,,,,,,,,,,2,2,,,,,,,4,6,5,5,,,,,,,,,,,911.4083,911.9079,912.158,914.3747,space,2.1843,,914.3747,29,16,915.3749,915.3749,915.3823,,,,0,11,11,11,1,160,115,,,,,,,,
,,60768c72f4cc270141585ff8,65af57758ebdf7e17d6d5787,2024-01-23_08h07.52.166,bars,2023.2.3,Win32,60.24096386,657b66ea316d21385b68909f,,,,,,,,,,,915.3824,916.3749,,,916.8749,917.1286,,42,42,,,,,,,,,,,,,,,,bars/025.png,bars/mask004.png,,,,,,,,,,,,3,2,,,,,,,6,4,6,3,,,,,,,,,,,916.3749,916.8749,917.1286,923.2411,space,6.0966,,923.2412,63,2,924.2414,924.2414,924.2482,,,,0,12,12,12,1,105,40,,,,,,,,
,,60768c72f4cc270141585ff8,65af57758ebdf7e17d6d5787,2024-01-23_08h07.52.166,bars,2023.2.3,Win32,60.24096386,657b66ea316d21385b68909f,,,,,,,,,,,924.2482,925.2411,,,925.7413,925.9911,,44,44,,,,,,,,,,,,,,,,bars/004.png,bars/mask003.png,,,,,,,,,,,,2,1,,,,,,,8,6,6,6,,,,,,,,,,,925.2412,925.7413,925.9911,935.1575,space,9.1608,,935.1575,19,81,936.1576,936.1576,936.1656,,,,0,13,13,13,1,25,125,,,,,,,,
,,60768c72f4cc270141585ff8,65af57758ebdf7e17d6d5787,2024-01-23_08h07.52.166,bars,2023.2.3,Win32,60.24096386,657b66ea316d21385b68909f,,,,,,,,,,,936.1658,937.1576,,,937.6576,937.9076,,54,54,,,,,,,,,,,,,,,,bars/042.png,bars/mask003.png,,,,,,,,,,,,1,2,,,,,,,6,4,5,4,,,,,,,,,,,937.1576,937.6576,937.9076,944.624,space,6.7043,,944.624,89,21,945.6244,945.6244,945.6323,,,,0,14,14,14,1,145,75,,,,,,,,
,,60768c72f4cc270141585ff8,65af57758ebdf7e17d6d5787,2024-01-23_08h07.52.166,bars,2023.2.3,Win32,60.24096386,657b66ea316d21385b68909f,,,,,,,,,,,945.6325,946.624,,,947.1239,947.3742,,149,149,,,,,,,,,,,,,,,,bars/039.png,bars/mask005.png,,,,,,,,,,,,0,1,,,,,,,4,2,3,2,,,,,,,,,,,946.624,947.1239,947.3743,956.8574,space,9.4665,,956.8574,26,44,957.8592,957.8592,957.8654,,,,0,15,15,15,1,175,105,,,,,,,,
,,60768c72f4cc270141585ff8,65af57758ebdf7e17d6d5787,2024-01-23_08h07.52.166,bars,2023.2.3,Win32,60.24096386,657b66ea316d21385b68909f,,,,,,,,,,,957.8656,958.8571,,,959.3571,959.6072,,22,22,,,,,,,,,,,,,,,,bars/031.png,bars/mask008.png,,,,,,,,,,,,3,2,,,,,,,2,4,3,5,,,,,,,,,,,958.8571,959.3571,959.6072,965.4572,space,5.8377,,965.4572,82,13,966.4568,966.4569,966.4622,,,,0,16,16,16,1,120,35,,,,,,,,
,,60768c72f4cc270141585ff8,65af57758ebdf7e17d6d5787,2024-01-23_08h07.52.166,bars,2023.2.3,Win32,60.24096386,657b66ea316d21385b68909f,,,,,,,,,,,966.4623,967.457,,,967.957,968.2066,,46,46,,,,,,,,,,,,,,,,bars/019.png,bars/mask009.png,,,,,,,,,,,,0,1,,,,,,,0,2,0,4,,,,,,,,,,,967.457,967.957,968.2066,970.1903,space,1.968,,970.1903,1,59,971.1898,971.1898,971.1906,,,,0,17,17,17,1,45,105,,,,,,,,
,,60768c72f4cc270141585ff8,65af57758ebdf7e17d6d5787,2024-01-23_08h07.52.166,bars,2023.2.3,Win32,60.24096386,657b66ea316d21385b68909f,,,,,,,,,,,971.1908,972.19,,,972.6905,972.9398,,113,113,,,,,,,,,,,,,,,,bars/042.png,bars/mask003.png,,,,,,,,,,,,0,1,,,,,,,0,0,2,1,,,,,,,,,,,972.19,972.6905,972.9398,976.6113,space,3.6672,,976.6114,32,38,977.6069,977.6069,977.6114,,,,0,18,18,18,1,145,75,,,,,,,,
,,60768c72f4cc270141585ff8,65af57758ebdf7e17d6d5787,2024-01-23_08h07.52.166,bars,2023.2.3,Win32,60.24096386,657b66ea316d21385b68909f,,,,,,,,,,,977.6115,978.6069,,,979.0952,979.3404,,73,73,,,,,,,,,,,,,,,,bars/041.png,bars/mask004.png,,,,,,,,,,,,0,2,,,,,,,0,0,1,0,,,,,,,,,,,978.6069,979.0952,979.3404,984.5231,space,5.1695,,984.5231,53,12,985.5237,985.5237,985.529,,,,0,19,19,19,1,20,85,,,,,,,,
,,60768c72f4cc270141585ff8,65af57758ebdf7e17d6d5787,2024-01-23_08h07.52.166,bars,2023.2.3,Win32,60.24096386,657b66ea316d21385b68909f,,,,,,,,,,,985.5292,986.5233,,,987.0231,987.2731,,150,150,,,,,,,,,,,,,,,,bars/041.png,bars/mask008.png,,,,,,,,,,,,0,1,,,,,,,2,2,3,2,,,,,,,,,,,986.5233,987.0231,987.2732,1000.5563,space,13.2668,,1000.5564,50,65,1001.5565,1001.5565,1001.5616,,,,0,20,20,20,1,20,85,,,,,,,,
,,60768c72f4cc270141585ff8,65af57758ebdf7e17d6d5787,2024-01-23_08h07.52.166,bars,2023.2.3,Win32,60.24096386,657b66ea316d21385b68909f,,,,,,,,,,,1001.5616,1002.5563,,,1003.0565,1003.3063,,156,156,,,,,,,,,,,,,,,,bars/021.png,bars/mask006.png,,,,,,,,,,,,0,1,,,,,,,0,0,0,0,,,,,,,,,,,1002.5563,1003.0564,1003.3063,1007.6729,space,4.3513,,1007.6729,1,86,1008.6733,1008.6733,1008.6803,,,,0,21,21,21,1,155,70,,,,,,,,
,,60768c72f4cc270141585ff8,65af57758ebdf7e17d6d5787,2024-01-23_08h07.52.166,bars,2023.2.3,Win32,60.24096386,657b66ea316d21385b68909f,,,,,,,,,,,1008.6803,1009.6726,,,1010.1776,1010.4233,,146,-34,,,,,,,,,,,,,,,,bars/015.png,bars/mask009.png,,,,,,,,,,,,1,2,,,,,,,0,2,0,2,,,,,,,,,,,1009.6727,1010.1776,1010.4233,1026.5892,space,16.1518,,1026.5892,36,14,1027.594,1027.594,1027.5993,,,,0,22,22,22,1,110,160,,,,,,,,
,,60768c72f4cc270141585ff8,65af57758ebdf7e17d6d5787,2024-01-23_08h07.52.166,bars,2023.2.3,Win32,60.24096386,657b66ea316d21385b68909f,,,,,,,,,,,1027.5994,1028.5893,,,1029.0892,1029.3392,,37,37,,,,,,,,,,,,,,,,bars/005.png,bars/mask007.png,,,,,,,,,,,,0,1,,,,,,,2,4,2,6,,,,,,,,,,,1028.5893,1029.0891,1029.3393,1039.2556,space,9.9077,,1039.2556,27,77,1040.2559,1040.2559,1040.2611,,,,0,23,23,23,1,10,140,,,,,,,,
,,60768c72f4cc270141585ff8,65af57758ebdf7e17d6d5787,2024-01-23_08h07.52.166,bars,2023.2.3,Win32,60.24096386,657b66ea316d21385b68909f,,,,,,,,,,,1040.2611,1041.256,,,1041.756,1042.0055,,50,50,,,,,,,,,,,,,,,,bars/026.png,bars/mask000.png,,,,,,,,,,,,3,1,,,,,,,4,2,5,3,,,,,,,,,,,1041.256,1041.7559,1042.0055,1045.4389,space,3.4175,,1045.4389,15,35,1046.4392,1046.4392,1046.4437,,,,0,24,24,24,1,35,85,,,,,,,,
,,60768c72f4cc270141585ff8,65af57758ebdf7e17d6d5787,2024-01-23_08h07.52.166,bars,2023.2.3,Win32,60.24096386,657b66ea316d21385b68909f,,,,,,,,,,,1046.4438,1047.4391,,,1047.9392,1048.1934,,161,161,,,,,,,,,,,,,,,,bars/040.png,bars/mask000.png,,,,,,,,,,,,1,1,,,,,,,2,4,2,4,,,,,,,,,,,1047.4391,1047.9392,1048.1935,1054.4393,space,6.2296,,1054.4393,21,24,1055.4388,1055.4388,1055.4437,,,,0,25,25,25,1,140,5,,,,,,,,
,,60768c72f4cc270141585ff8,65af57758ebdf7e17d6d5787,2024-01-23_08h07.52.166,bars,2023.2.3,Win32,60.24096386,657b66ea316d21385b68909f,,,,,,,,,,,1055.4438,1056.4385,,,1056.9387,1057.189,,37,37,,,,,,,,,,,,,,,,bars/034.png,bars/mask004.png,,,,,,,,,,,,0,2,,,,,,,0,6,0,7,,,,,,,,,,,1056.4385,1056.9387,1057.189,1062.5718,space,5.3764,,1062.5718,88,28,1063.5769,1063.5769,1063.5839,,,,0,26,26,26,1,125,65,,,,,,,,
,,60768c72f4cc270141585ff8,65af57758ebdf7e17d6d5787,2024-01-23_08h07.52.166,bars,2023.2.3,Win32,60.24096386,657b66ea316d21385b68909f,,,,,,,,,,,1063.5839,1064.5722,,,1065.0723,1065.3217,,45,45,,,,,,,,,,,,,,,,bars/038.png,bars/mask000.png,,,,,,,,,,,,1,2,,,,,,,2,8,2,9,,,,,,,,,,,1064.5722,1065.0722,1065.3217,1069.005,space,3.6764,,1069.0051,60,25,1070.0055,1070.0055,1070.0123,,,,0,27,27,27,1,165,70,,,,,,,,
,,60768c72f4cc270141585ff8,65af57758ebdf7e17d6d5787,2024-01-23_08h07.52.166,bars,2023.2.3,Win32,60.24096386,657b66ea316d21385b68909f,,,,,,,,,,,1070.0125,1071.0053,,,1071.5055,1071.7555,,81,81,,,,,,,,,,,,,,,,bars/004.png,bars/mask006.png,,,,,,,,,,,,0,2,,,,,,,0,6,0,5,,,,,,,,,,,1071.0054,1071.5055,1071.7555,1083.7712,space,12.0109,,1083.7712,56,44,1084.7716,1084.7716,1084.7763,,,,0,28,28,28,1,25,125,,,,,,,,
,,60768c72f4cc270141585ff8,65af57758ebdf7e17d6d5787,2024-01-23_08h07.52.166,bars,2023.2.3,Win32,60.24096386,657b66ea316d21385b68909f,,,,,,,,,,,1084.7764,1085.7714,,,1086.26,1086.5051,,123,123,,,,,,,,,,,,,,,,bars/018.png,bars/mask008.png,,,,,,,,,,,,0,1,,,,,,,0,4,0,4,,,,,,,,,,,1085.7714,1086.26,1086.5051,1090.5215,space,3.9891,,1090.5215,27,33,1091.5214,1091.5214,1091.5286,,,,0,29,29,29,1,150,90,,,,,,,,
,,60768c72f4cc270141585ff8,65af57758ebdf7e17d6d5787,2024-01-23_08h07.52.166,bars,2023.2.3,Win32,60.24096386,657b66ea316d21385b68909f,,,,,,,,,,,1091.5287,1092.5215,,,1093.0098,1093.255,,152,152,,,,,,,,,,,,,,,,bars/032.png,bars/mask007.png,,,,,,,,,,,,0,1,,,,,,,2,6,2,7,,,,,,,,,,,1092.5215,1093.0098,1093.255,1101.6717,space,8.3998,,1101.6717,27,48,1102.6712,1102.6713,1102.676,,,,0,30,30,30,1,125,20,,,,,,,,
,,60768c72f4cc270141585ff8,65af57758ebdf7e17d6d5787,2024-01-23_08h07.52.166,bars,2023.2.3,Win32,60.24096386,657b66ea316d21385b68909f,,,,,,,,,,,1102.6761,1103.671,,,1104.1715,1104.4215,,36,36,,,,,,,,,,,,,,,,bars/031.png,bars/mask002.png,,,,,,,,,,,,4,2,,,,,,,0,4,0,4,,,,,,,,,,,1103.671,1104.1715,1104.4215,1109.9876,space,5.5603,,1109.9876,84,1,1110.9881,1110.9881,1110.9958,,,,0,31,31,31,1,120,35,,,,,,,,
,,60768c72f4cc270141585ff8,65af57758ebdf7e17d6d5787,2024-01-23_08h07.52.166,bars,2023.2.3,Win32,60.24096386,657b66ea316d21385b68909f,,,,,,,,,,,1110.9959,1111.9879,,,1112.4929,1112.7375,,159,159,,,,,,,,,,,,,,,,bars/021.png,bars/mask001.png,,,,,,,,,,,,2,1,,,,,,,2,6,2,5,,,,,,,,,,,1111.9879,1112.4929,1112.7376,1119.5708,space,6.8222,,1119.5708,4,89,1120.5712,1120.5712,1120.579,,,,0,32,32,32,1,155,70,,,,,,,,
,,60768c72f4cc270141585ff8,65af57758ebdf7e17d6d5787,2024-01-23_08h07.52.166,bars,2023.2.3,Win32,60.24096386,657b66ea316d21385b68909f,,,,,,,,,,,1120.5792,1121.5708,,,1122.0712,1122.3093,,23,203,,,,,,,,,,,,,,,,bars/009.png,bars/mask001.png,,,,,,,,,,,,3,1,,,,,,,4,4,4,5,,,,,,,,,,,1121.5708,1122.0711,1122.3094,1125.6711,space,3.3463,,1125.6712,8,82,1126.6592,1126.6592,1126.6662,,,,0,33,33,33,1,15,105,,,,,,,,
,,60768c72f4cc270141585ff8,65af57758ebdf7e17d6d5787,2024-01-23_08h07.52.166,bars,2023.2.3,Win32,60.24096386,657b66ea316d21385b68909f,,,,,,,,,,,1126.6664,1127.6592,,,1128.1543,1128.3925,,87,87,,,,,,,,,,,,,,,,bars/029.png,bars/mask000.png,,,,,,,,,,,,2,1,,,,,,,2,2,2,2,,,,,,,,,,,1127.6592,1128.1543,1128.3925,1140.4205,space,12.0222,,1140.4205,3,42,1141.4205,1141.4205,1141.4253,,,,0,34,34,34,1,90,45,,,,,,,,
,,60768c72f4cc270141585ff8,65af57758ebdf7e17d6d5787,2024-01-23_08h07.52.166,bars,2023.2.3,Win32,60.24096386,657b66ea316d21385b68909f,,,,,,,,,,,1141.4254,1142.4205,,,1142.9207,1143.1708,,120,120,,,,,,,,,,,,,,,,bars/017.png,bars/mask000.png,,,,,,,,,,,,0,1,,,,,,,0,0,0,0,,,,,,,,,,,1142.4205,1142.9206,1143.1708,1154.8204,space,11.6329,,1154.8204,25,75,1155.8206,1155.8206,1155.8276,,,,0,35,35,35,1,145,45,,,,,,,,
,,60768c72f4cc270141585ff8,65af57758ebdf7e17d6d5787,2024-01-23_08h07.52.166,bars,2023.2.3,Win32,60.24096386,657b66ea316d21385b68909f,,,,,,,,,,,1155.8278,1156.8204,,,1157.3244,1157.5748,,153,153,,,,,,,,,,,,,,,,bars/011.png,bars/mask006.png,,,,,,,,,,,,2,1,,,,,,,2,2,3,2,,,,,,,,,,,1156.8204,1157.3244,1157.5748,1162.8416,space,5.2625,,1162.8416,7,68,1163.837,1163.837,1163.8417,,,,0,36,36,36,1,160,85,,,,,,,,
,,60768c72f4cc270141585ff8,65af57758ebdf7e17d6d5787,2024-01-23_08h07.52.166,bars,2023.2.3,Win32,60.24096386,657b66ea316d21385b68909f,,,,,,,,,,,1163.8418,1164.8368,,,1165.3367,1165.587,,142,142,,,,,,,,,,,,,,,,bars/018.png,bars/mask000.png,,,,,,,,,,,,2,1,,,,,,,4,0,3,0,,,,,,,,,,,1164.8368,1165.3366,1165.587,1177.8365,space,12.2408,,1177.8365,8,52,1178.8369,1178.8369,1178.8439,,,,0,37,37,37,1,150,90,,,,,,,,
,,60768c72f4cc270141585ff8,65af57758ebdf7e17d6d5787,2024-01-23_08h07.52.166,bars,2023.2.3,Win32,60.24096386,657b66ea316d21385b68909f,,,,,,,,,,,1178.844,1179.8415,,,1180.3368,1180.5864,,155,155,,,,,,,,,,,,,,,,bars/015.png,bars/mask008.png,,,,,,,,,,,,3,2,,,,,,,2,2,2,3,,,,,,,,,,,1179.8415,1180.3368,1180.5864,1194.12,space,13.5168,,1194.12,45,5,1195.1198,1195.1198,1195.1273,,,,0,38,38,38,1,110,160,,,,,,,,
,,60768c72f4cc270141585ff8,65af57758ebdf7e17d6d5787,2024-01-23_08h07.52.166,bars,2023.2.3,Win32,60.24096386,657b66ea316d21385b68909f,,,,,,,,,,,1195.1274,1196.1197,,,1196.6198,1196.8698,,133,133,,,,,,,,,,,,,,,,bars/025.png,bars/mask001.png,,,,,,,,,,,,0,1,,,,,,,4,4,5,5,,,,,,,,,,,1196.1197,1196.6198,1196.8698,1202.3859,space,5.506,,1202.3859,28,87,1203.3863,1203.3864,1203.3915,,,,0,39,39,39,1,105,40,,,,,,,,
,,60768c72f4cc270141585ff8,65af57758ebdf7e17d6d5787,2024-01-23_08h07.52.166,bars,2023.2.3,Win32,60.24096386,657b66ea316d21385b68909f,,,,,,,,,,,1203.3916,1204.3859,,,1204.8861,1205.136,,40,40,,,,,,,,,,,,,,,,bars/028.png,bars/mask000.png,,,,,,,,,,,,5,1,,,,,,,6,2,6,1,,,,,,,,,,,1204.3859,1204.8861,1205.136,1208.3382,space,3.1977,,1208.3382,5,80,1209.3357,1209.3357,1209.3405,,,,0,40,40,40,1,45,120,,,,,,,,
,,60768c72f4cc270141585ff8,65af57758ebdf7e17d6d5787,2024-01-23_08h07.52.166,bars,2023.2.3,Win32,60.24096386,657b66ea316d21385b68909f,,,,,,,,,,,1209.3405,1210.3359,,,1210.8241,1211.0692,,167,167,,,,,,,,,,,,,,,,bars/040.png,bars/mask008.png,,,,,,,,,,,,2,2,,,,,,,4,4,3,4,,,,,,,,,,,1210.3359,1210.8241,1211.0692,1214.1863,space,3.1008,,1214.1864,27,18,1215.1859,1215.1859,1215.1908,,,,0,41,41,41,1,140,5,,,,,,,,
,,60768c72f4cc270141585ff8,65af57758ebdf7e17d6d5787,2024-01-23_08h07.52.166,bars,2023.2.3,Win32,60.24096386,657b66ea316d21385b68909f,,,,,,,,,,,1215.1909,1216.1861,,,1216.6861,1216.9362,,26,206,,,,,,,,,,,,,,,,bars/047.png,bars/mask009.png,,,,,,,,,,,,3,1,,,,,,,6,2,5,1,,,,,,,,,,,1216.1862,1216.686,1216.9362,1221.669,space,4.7174,,1221.669,11,44,1222.669,1222.6691,1222.6755,,,,0,42,42,42,1,15,70,,,,,,,,
,,60768c72f4cc270141585ff8,65af57758ebdf7e17d6d5787,2024-01-23_08h07.52.166,bars,2023.2.3,Win32,60.24096386,657b66ea316d21385b68909f,,,,,,,,,,,1222.6756,1223.6694,,,1224.1694,1224.4194,,122,122,,,,,,,,,,,,,,,,bars/035.png,bars/mask004.png,,,,,,,,,,,,0,1,,,,,,,8,0,8,0,,,,,,,,,,,1223.6694,1224.1694,1224.4194,1228.9023,space,4.4668,,1228.9023,53,62,1229.9024,1229.9024,1229.907,,,,0,43,43,43,1,175,60,,,,,,,,
,,60768c72f4cc270141585ff8,65af57758ebdf7e17d6d5787,2024-01-23_08h07.52.166,bars,2023.2.3,Win32,60.24096386,657b66ea316d21385b68909f,,,,,,,,,,,1229.9071,1230.9026,,,1231.4022,1231.6525,,39,219,,,,,,,,,,,,,,,,bars/011.png,bars/mask005.png,,,,,,,,,,,,0,2,,,,,,,6,2,7,0,,,,,,,,,,,1230.9026,1231.4022,1231.6525,1239.0186,space,7.3497,,1239.0187,59,46,1240.019,1240.019,1240.0242,,,,0,44,44,44,1,160,85,,,,,,,,
,,60768c72f4cc270141585ff8,65af57758ebdf7e17d6d5787,2024-01-23_08h07.52.166,bars,2023.2.3,Win32,60.24096386,657b66ea316d21385b68909f,,,,,,,,,,,1240.0243,1241.019,,,1241.519,1241.769,,115,115,,,,,,,,,,,,,,,,bars/007.png,bars/mask004.png,,,,,,,,,,,,0,2,,,,,,,4,4,5,5,,,,,,,,,,,1241.019,1241.5189,1241.769,1244.8021,space,3.0172,,1244.8022,60,60,1245.802,1245.802,1245.8065,,,,0,45,45,45,1,175,55,,,,,,,,
,,60768c72f4cc270141585ff8,65af57758ebdf7e17d6d5787,2024-01-23_08h07.52.166,bars,2023.2.3,Win32,60.24096386,657b66ea316d21385b68909f,,,,,,,,,,,1245.8067,1246.8023,,,1247.3019,1247.5518,,52,52,,,,,,,,,,,,,,,,bars/014.png,bars/mask004.png,,,,,,,,,,,,0,1,,,,,,,6,6,7,4,,,,,,,,,,,1246.8023,1247.3018,1247.5518,1252.7186,space,5.1388,,1252.7186,28,52,1253.7188,1253.7188,1253.727,,,,0,46,46,46,1,80,0,,,,,,,,
,,60768c72f4cc270141585ff8,65af57758ebdf7e17d6d5787,2024-01-23_08h07.52.166,bars,2023.2.3,Win32,60.24096386,657b66ea316d21385b68909f,,,,,,,,,,,1253.7271,1254.7187,,,1255.2182,1255.4566,,40,40,,,,,,,,,,,,,,,,bars/028.png,bars/mask006.png,,,,,,,,,,,,3,1,,,,,,,4,8,3,6,,,,,,,,,,,1254.7188,1255.2182,1255.4566,1260.6687,space,5.1956,,1260.6687,5,80,1261.6686,1261.6686,1261.6747,,,,0,47,47,47,1,45,120,,,,,,,,
,,60768c72f4cc270141585ff8,65af57758ebdf7e17d6d5787,2024-01-23_08h07.52.166,bars,2023.2.3,Win32,60.24096386,657b66ea316d21385b68909f,,,,,,,,,,,1261.6748,1262.6683,,,1263.1689,1263.4182,,143,143,,,,,,,,,,,,,,,,bars/046.png,bars/mask007.png,,,,,,,,,,,,4,1,,,,,,,6,10,7,10,,,,,,,,,,,1262.6683,1263.1689,1263.4182,1269.618,space,6.1675,,1269.618,12,58,1270.6225,1270.6225,1270.6294,,,,0,48,48,48,1,155,85,,,,,,,,
,,60768c72f4cc270141585ff8,65af57758ebdf7e17d6d5787,2024-01-23_08h07.52.166,bars,2023.2.3,Win32,60.24096386,657b66ea316d21385b68909f,,,,,,,,,,,1270.6294,1271.6185,,,1272.1184,1272.3684,,167,167,,,,,,,,,,,,,,,,bars/007.png,bars/mask001.png,,,,,,,,,,,,6,1,,,,,,,8,10,8,10,,,,,,,,,,,1271.6185,1272.1184,1272.3684,1276.4518,space,4.0663,,1276.4518,8,68,1277.4516,1277.4516,1277.4564,,,,0,49,49,49,1,175,55,,,,,,,,
,,60768c72f4cc270141585ff8,65af57758ebdf7e17d6d5787,2024-01-23_08h07.52.166,bars,2023.2.3,Win32,60.24096386,657b66ea316d21385b68909f,,,,,,,,,,,,,,,,,,,,,,,,,,,,,,,,,,,,,,,,,,,,,,,,,,,,,,,,,,,,,,,,,,,,,,,,,,,,,,,,,,,,,,,,,,,,,1277.4565,1337.4504,0,1,1,2,1,sequence_tables/blk011.csv
,,60768c72f4cc270141585ff8,65af57758ebdf7e17d6d5787,2024-01-23_08h07.52.166,bars,2023.2.3,Win32,60.24096386,657b66ea316d21385b68909f,,,,,,,,,,,1359.5898,1360.5835,,,1361.0856,1361.3334,,38,38,,,,,,,,,,,,,,,,bars/037.png,bars/mask003.png,,,,,,,,,,,,0,2,,,,,,,8,8,9,9,,,,,,1337.4562,1359.5831,space,22.1041,,1360.5836,1361.0856,1361.3334,1364.2663,space,2.9168,,1364.2663,68,67,1365.2667,1365.2667,1365.2741,,,,0,0,0,0,1,150,105,,,,,,,,
,,60768c72f4cc270141585ff8,65af57758ebdf7e17d6d5787,2024-01-23_08h07.52.166,bars,2023.2.3,Win32,60.24096386,657b66ea316d21385b68909f,,,,,,,,,,,1365.2743,1366.2668,,,1366.7664,1367.0166,,139,139,,,,,,,,,,,,,,,,bars/011.png,bars/mask007.png,,,,,,,,,,,,2,1,,,,,,,10,6,8,6,,,,,,,,,,,1366.2668,1366.7664,1367.0166,1378.4163,space,11.3843,,1378.4163,21,54,1379.4164,1379.4165,1379.424,,,,0,1,1,1,1,160,85,,,,,,,,
,,60768c72f4cc270141585ff8,65af57758ebdf7e17d6d5787,2024-01-23_08h07.52.166,bars,2023.2.3,Win32,60.24096386,657b66ea316d21385b68909f,,,,,,,,,,,1379.4242,1380.4161,,,1380.9161,1381.1664,,36,36,,,,,,,,,,,,,,,,bars/039.png,bars/mask006.png,,,,,,,,,,,,0,1,,,,,,,8,8,10,8,,,,,,,,,,,1380.4161,1380.9161,1381.1664,1385.3662,space,4.1956,,1385.3663,41,69,1386.3663,1386.3663,1386.3732,,,,0,2,2,2,1,175,105,,,,,,,,
,,60768c72f4cc270141585ff8,65af57758ebdf7e17d6d5787,2024-01-23_08h07.52.166,bars,2023.2.3,Win32,60.24096386,657b66ea316d21385b68909f,,,,,,,,,,,1386.3733,1387.366,,,1387.8664,1388.1162,,122,122,,,,,,,,,,,,,,,,bars/041.png,bars/mask001.png,,,,,,,,,,,,0,2,,,,,,,6,6,4,7,,,,,,,,,,,1387.366,1387.8664,1388.1164,1400.7325,space,12.6079,,1400.7325,78,37,1401.7329,1401.7329,1401.738,,,,0,3,3,3,1,20,85,,,,,,,,
,,60768c72f4cc270141585ff8,65af57758ebdf7e17d6d5787,2024-01-23_08h07.52.166,bars,2023.2.3,Win32,60.24096386,657b66ea316d21385b68909f,,,,,,,,,,,1401.7381,1402.7328,,,1403.2323,1403.4824,,31,31,,,,,,,,,,,,,,,,bars/001.png,bars/mask006.png,,,,,,,,,,,,0,2,,,,,,,4,8,5,7,,,,,,,,,,,1402.7328,1403.2323,1403.4824,1416.4489,space,12.9508,,1416.4489,81,54,1417.4491,1417.4492,1417.4565,,,,0,4,4,4,1,130,85,,,,,,,,
,,60768c72f4cc270141585ff8,65af57758ebdf7e17d6d5787,2024-01-23_08h07.52.166,bars,2023.2.3,Win32,60.24096386,657b66ea316d21385b68909f,,,,,,,,,,,1417.4567,1418.4488,,,1418.9492,1419.2039,,80,80,,,,,,,,,,,,,,,,bars/046.png,bars/mask003.png,,,,,,,,,,,,5,2,,,,,,,2,6,1,6,,,,,,,,,,,1418.4488,1418.9491,1419.2039,1424.6154,space,5.3993,,1424.6154,75,5,1425.6154,1425.6154,1425.6225,,,,0,5,5,5,1,155,85,,,,,,,,
,,60768c72f4cc270141585ff8,65af57758ebdf7e17d6d5787,2024-01-23_08h07.52.166,bars,2023.2.3,Win32,60.24096386,657b66ea316d21385b68909f,,,,,,,,,,,1425.6226,1426.6156,,,1427.1154,1427.3704,,24,204,,,,,,,,,,,,,,,,bars/022.png,bars/mask000.png,,,,,,,,,,,,5,2,,,,,,,4,4,3,6,,,,,,,,,,,1426.6157,1427.1154,1427.3704,1433.8316,space,6.4563,,1433.8316,71,4,1434.8202,1434.8202,1434.8272,,,,0,6,6,6,1,95,20,,,,,,,,
,,60768c72f4cc270141585ff8,65af57758ebdf7e17d6d5787,2024-01-23_08h07.52.166,bars,2023.2.3,Win32,60.24096386,657b66ea316d21385b68909f,,,,,,,,,,,1434.8273,1435.8155,,,1436.3155,1436.5655,,119,119,,,,,,,,,,,,,,,,bars/045.png,bars/mask004.png,,,,,,,,,,,,0,1,,,,,,,2,2,1,1,,,,,,,,,,,1435.8156,1436.3155,1436.5655,1440.4652,space,3.8923,,1440.4652,19,71,1441.4649,1441.465,1441.47,,,,0,7,7,7,1,100,10,,,,,,,,
,,60768c72f4cc270141585ff8,65af57758ebdf7e17d6d5787,2024-01-23_08h07.52.166,bars,2023.2.3,Win32,60.24096386,657b66ea316d21385b68909f,,,,,,,,,,,1441.47,1442.4654,,,1442.9653,1443.2154,,126,126,,,,,,,,,,,,,,,,bars/041.png,bars/mask006.png,,,,,,,,,,,,0,2,,,,,,,4,4,3,3,,,,,,,,,,,1442.4654,1442.9653,1443.2154,1445.765,space,2.5356,,1445.765,74,41,1446.7653,1446.7653,1446.7734,,,,0,8,8,8,1,20,85,,,,,,,,
,,60768c72f4cc270141585ff8,65af57758ebdf7e17d6d5787,2024-01-23_08h07.52.166,bars,2023.2.3,Win32,60.24096386,657b66ea316d21385b68909f,,,,,,,,,,,1446.7736,1447.7653,,,1448.2653,1448.5152,,85,85,,,,,,,,,,,,,,,,bars/031.png,bars/mask005.png,,,,,,,,,,,,0,1,,,,,,,2,6,3,7,,,,,,,,,,,1447.7653,1448.2653,1448.5152,1452.8815,space,4.3516,,1452.8816,35,50,1453.8816,1453.8817,1453.8867,,,,0,9,9,9,1,120,35,,,,,,,,
,,60768c72f4cc270141585ff8,65af57758ebdf7e17d6d5787,2024-01-23_08h07.52.166,bars,2023.2.3,Win32,60.24096386,657b66ea316d21385b68909f,,,,,,,,,,,1453.8869,1454.8818,,,1455.3862,1455.6315,,156,156,,,,,,,,,,,,,,,,bars/036.png,bars/mask009.png,,,,,,,,,,,,3,1,,,,,,,4,8,4,8,,,,,,,,,,,1454.8818,1455.3861,1455.6316,1463.9979,space,8.35,,1463.9979,11,44,1464.9983,1464.9983,1465.003,,,,0,10,10,10,1,145,20,,,,,,,,
,,60768c72f4cc270141585ff8,65af57758ebdf7e17d6d5787,2024-01-23_08h07.52.166,bars,2023.2.3,Win32,60.24096386,657b66ea316d21385b68909f,,,,,,,,,,,1465.0031,1465.998,,,1466.4861,1466.7316,,100,100,,,,,,,,,,,,,,,,bars/034.png,bars/mask007.png,,,,,,,,,,,,1,1,,,,,,,6,6,6,6,,,,,,,,,,,1465.998,1466.4861,1466.7317,1474.3192,space,7.5829,,1474.3192,25,35,1475.3144,1475.3144,1475.3215,,,,0,11,11,11,1,125,65,,,,,,,,
,,60768c72f4cc270141585ff8,65af57758ebdf7e17d6d5787,2024-01-23_08h07.52.166,bars,2023.2.3,Win32,60.24096386,657b66ea316d21385b68909f,,,,,,,,,,,1475.3217,1476.3148,,,1476.8147,1477.0645,,145,145,,,,,,,,,,,,,,,,bars/031.png,bars/mask004.png,,,,,,,,,,,,0,1,,,,,,,4,4,3,3,,,,,,,,,,,1476.3148,1476.8147,1477.0645,1488.6474,space,11.5782,,1488.6475,25,70,1489.6475,1489.6475,1489.6548,,,,0,12,12,12,1,120,35,,,,,,,,
,,60768c72f4cc270141585ff8,65af57758ebdf7e17d6d5787,2024-01-23_08h07.52.166,bars,2023.2.3,Win32,60.24096386,657b66ea316d21385b68909f,,,,,,,,,,,1489.6551,1490.6475,,,1491.1474,1491.3978,,33,33,,,,,,,,,,,,,,,,bars/034.png,bars/mask002.png,,,,,,,,,,,,0,2,,,,,,,2,6,1,6,,,,,,,,,,,1490.6475,1491.1474,1491.3978,1497.264,space,5.8508,,1497.264,88,32,1498.2643,1498.2644,1498.2694,,,,0,13,13,13,1,125,65,,,,,,,,
,,60768c72f4cc270141585ff8,65af57758ebdf7e17d6d5787,2024-01-23_08h07.52.166,bars,2023.2.3,Win32,60.24096386,657b66ea316d21385b68909f,,,,,,,,,,,1498.2696,1499.2642,,,1499.7641,1500.0143,,153,153,,,,,,,,,,,,,,,,bars/032.png,bars/mask002.png,,,,,,,,,,,,0,1,,,,,,,0,8,0,8,,,,,,,,,,,1499.2643,1499.764,1500.0144,1504.5639,space,4.5451,,1504.564,28,47,1505.5642,1505.5642,1505.5716,,,,0,14,14,14,1,125,20,,,,,,,,
,,60768c72f4cc270141585ff8,65af57758ebdf7e17d6d5787,2024-01-23_08h07.52.166,bars,2023.2.3,Win32,60.24096386,657b66ea316d21385b68909f,,,,,,,,,,,1505.5718,1506.5687,,,1507.0637,1507.3141,,152,152,,,,,,,,,,,,,,,,bars/020.png,bars/mask008.png,,,,,,,,,,,,2,2,,,,,,,0,6,0,6,,,,,,,,,,,1506.5688,1507.0637,1507.3141,1515.5805,space,8.257,,1515.5805,37,18,1516.5807,1516.5807,1516.5887,,,,0,15,15,15,1,115,170,,,,,,,,
,,60768c72f4cc270141585ff8,65af57758ebdf7e17d6d5787,2024-01-23_08h07.52.166,bars,2023.2.3,Win32,60.24096386,657b66ea316d21385b68909f,,,,,,,,,,,1516.5889,1517.5807,,,1518.0806,1518.3305,,7,7,,,,,,,,,,,,,,,,bars/010.png,bars/mask007.png,,,,,,,,,,,,1,1,,,,,,,2,8,3,9,,,,,,,,,,,1517.5807,1518.0806,1518.3305,1525.7803,space,7.4444,,1525.7803,22,48,1526.7804,1526.7804,1526.7866,,,,0,16,16,16,1,165,55,,,,,,,,
,,60768c72f4cc270141585ff8,65af57758ebdf7e17d6d5787,2024-01-23_08h07.52.166,bars,2023.2.3,Win32,60.24096386,657b66ea316d21385b68909f,,,,,,,,,,,1526.7867,1527.7806,,,1528.2802,1528.5305,,51,231,,,,,,,,,,,,,,,,bars/034.png,bars/mask007.png,,,,,,,,,,,,5,2,,,,,,,0,10,1,10,,,,,,,,,,,1527.7806,1528.2802,1528.5305,1532.8018,space,4.2668,,1532.8018,74,14,1533.8015,1533.8015,1533.808,,,,0,17,17,17,1,125,65,,,,,,,,
,,60768c72f4cc270141585ff8,65af57758ebdf7e17d6d5787,2024-01-23_08h07.52.166,bars,2023.2.3,Win32,60.24096386,657b66ea316d21385b68909f,,,,,,,,,,,1533.8082,1534.7967,,,1535.2966,1535.5513,,125,125,,,,,,,,,,,,,,,,bars/018.png,bars/mask006.png,,,,,,,,,,,,0,1,,,,,,,2,8,1,7,,,,,,,,,,,1534.7967,1535.2966,1535.5514,1541.0299,space,5.4647,,1541.03,25,35,1542.0301,1542.0301,1542.0374,,,,0,18,18,18,1,150,90,,,,,,,,
,,60768c72f4cc270141585ff8,65af57758ebdf7e17d6d5787,2024-01-23_08h07.52.166,bars,2023.2.3,Win32,60.24096386,657b66ea316d21385b68909f,,,,,,,,,,,1542.0376,1543.0302,,,1543.5303,1543.7801,,30,210,,,,,,,,,,,,,,,,bars/003.png,bars/mask004.png,,,,,,,,,,,,0,1,,,,,,,0,6,0,5,,,,,,,,,,,1543.0302,1543.5303,1543.7801,1551.5633,space,7.7675,,1551.5633,5,70,1552.5633,1552.5634,1552.57,,,,0,19,19,19,1,25,140,,,,,,,,
,,60768c72f4cc270141585ff8,65af57758ebdf7e17d6d5787,2024-01-23_08h07.52.166,bars,2023.2.3,Win32,60.24096386,657b66ea316d21385b68909f,,,,,,,,,,,1552.5701,1553.5633,,,1554.0633,1554.3177,,18,198,,,,,,,,,,,,,,,,bars/016.png,bars/mask006.png,,,,,,,,,,,,1,1,,,,,,,2,8,2,8,,,,,,,,,,,1553.5633,1554.0633,1554.3177,1557.0963,space,2.7702,,1557.0963,22,33,1558.0966,1558.0966,1558.101,,,,0,20,20,20,1,40,165,,,,,,,,
,,60768c72f4cc270141585ff8,65af57758ebdf7e17d6d5787,2024-01-23_08h07.52.166,bars,2023.2.3,Win32,60.24096386,657b66ea316d21385b68909f,,,,,,,,,,,1558.1011,1559.0961,,,1559.5963,1559.8505,,174,174,,,,,,,,,,,,,,,,bars/022.png,bars/mask001.png,,,,,,,,,,,,1,2,,,,,,,4,10,5,10,,,,,,,,,,,1559.0961,1559.5963,1559.8505,1570.5463,space,10.6726,,1570.5463,79,26,1571.5461,1571.5461,1571.554,,,,0,21,21,21,1,95,20,,,,,,,,
,,60768c72f4cc270141585ff8,65af57758ebdf7e17d6d5787,2024-01-23_08h07.52.166,bars,2023.2.3,Win32,60.24096386,657b66ea316d21385b68909f,,,,,,,,,,,1571.5542,1572.546,,,1573.046,1573.2962,,155,155,,,,,,,,,,,,,,,,bars/044.png,bars/mask002.png,,,,,,,,,,,,8,2,,,,,,,6,8,6,8,,,,,,,,,,,1572.546,1573.046,1573.2962,1578.3125,space,5.0079,,1578.3125,80,0,1579.3123,1579.3123,1579.3171,,,,0,22,22,22,1,75,155,,,,,,,,
,,60768c72f4cc270141585ff8,65af57758ebdf7e17d6d5787,2024-01-23_08h07.52.166,bars,2023.2.3,Win32,60.24096386,657b66ea316d21385b68909f,,,,,,,,,,,1579.3172,1580.3129,,,1580.8126,1581.0628,,115,115,,,,,,,,,,,,,,,,bars/001.png,bars/mask002.png,,,,,,,,,,,,4,1,,,,,,,8,10,7,10,,,,,,,,,,,1580.3129,1580.8126,1581.0628,1592.1289,space,11.0502,,1592.1289,15,30,1593.1293,1593.1293,1593.1348,,,,0,23,23,23,1,130,85,,,,,,,,
,,60768c72f4cc270141585ff8,65af57758ebdf7e17d6d5787,2024-01-23_08h07.52.166,bars,2023.2.3,Win32,60.24096386,657b66ea316d21385b68909f,,,,,,,,,,,1593.135,1594.1292,,,1594.6293,1594.8793,,120,120,,,,,,,,,,,,,,,,bars/041.png,bars/mask004.png,,,,,,,,,,,,0,2,,,,,,,10,10,10,9,,,,,,,,,,,1594.1293,1594.6293,1594.8793,1597.5787,space,2.6887,,1597.5788,80,35,1598.579,1598.579,1598.5863,,,,0,24,24,24,1,20,85,,,,,,,,
,,60768c72f4cc270141585ff8,65af57758ebdf7e17d6d5787,2024-01-23_08h07.52.166,bars,2023.2.3,Win32,60.24096386,657b66ea316d21385b68909f,,,,,,,,,,,1598.5865,1599.5791,,,1600.0789,1600.3291,,43,223,,,,,,,,,,,,,,,,bars/048.png,bars/mask006.png,,,,,,,,,,,,7,1,,,,,,,10,10,9,9,,,,,,,,,,,1599.5791,1600.0789,1600.3291,1605.2787,space,4.9435,,1605.2787,7,48,1606.2787,1606.2787,1606.2836,,,,0,25,25,25,1,50,175,,,,,,,,
,,60768c72f4cc270141585ff8,65af57758ebdf7e17d6d5787,2024-01-23_08h07.52.166,bars,2023.2.3,Win32,60.24096386,657b66ea316d21385b68909f,,,,,,,,,,,1606.2836,1607.2788,,,1607.7788,1608.029,,131,131,,,,,,,,,,,,,,,,bars/037.png,bars/mask004.png,,,,,,,,,,,,3,1,,,,,,,8,10,8,10,,,,,,,,,,,1607.2788,1607.7787,1608.029,1610.2994,space,2.2661,,1610.2995,19,26,1611.2953,1611.2954,1611.3002,,,,0,26,26,26,1,150,105,,,,,,,,
,,60768c72f4cc270141585ff8,65af57758ebdf7e17d6d5787,2024-01-23_08h07.52.166,bars,2023.2.3,Win32,60.24096386,657b66ea316d21385b68909f,,,,,,,,,,,1611.3003,1612.2958,,,1612.7956,1613.0507,,135,135,,,,,,,,,,,,,,,,bars/037.png,bars/mask002.png,,,,,,,,,,,,4,1,,,,,,,6,8,7,8,,,,,,,,,,,1612.2959,1612.7956,1613.0508,1618.2784,space,5.2226,,1618.2784,15,30,1619.2782,1619.2782,1619.2832,,,,0,27,27,27,1,150,105,,,,,,,,
,,60768c72f4cc270141585ff8,65af57758ebdf7e17d6d5787,2024-01-23_08h07.52.166,bars,2023.2.3,Win32,60.24096386,657b66ea316d21385b68909f,,,,,,,,,,,1619.2833,1620.2784,,,1620.7786,1621.0288,,127,127,,,,,,,,,,,,,,,,bars/025.png,bars/mask004.png,,,,,,,,,,,,1,1,,,,,,,4,6,4,6,,,,,,,,,,,1620.2784,1620.7786,1621.0288,1634.095,space,13.0499,,1634.095,22,87,1635.0995,1635.0996,1635.1043,,,,0,28,28,28,1,105,40,,,,,,,,
,,60768c72f4cc270141585ff8,65af57758ebdf7e17d6d5787,2024-01-23_08h07.52.166,bars,2023.2.3,Win32,60.24096386,657b66ea316d21385b68909f,,,,,,,,,,,1635.1044,1636.0953,,,1636.5948,1636.8452,,161,161,,,,,,,,,,,,,,,,bars/039.png,bars/mask004.png,,,,,,,,,,,,3,1,,,,,,,6,4,6,4,,,,,,,,,,,1636.0953,1636.5948,1636.8452,1640.0781,space,3.221,,1640.0781,14,56,1641.0781,1641.0781,1641.0826,,,,0,29,29,29,1,175,105,,,,,,,,
,,60768c72f4cc270141585ff8,65af57758ebdf7e17d6d5787,2024-01-23_08h07.52.166,bars,2023.2.3,Win32,60.24096386,657b66ea316d21385b68909f,,,,,,,,,,,1641.0827,1642.0784,,,1642.5781,1642.8283,,30,30,,,,,,,,,,,,,,,,bars/035.png,bars/mask004.png,,,,,,,,,,,,0,2,,,,,,,8,6,10,7,,,,,,,,,,,1642.0784,1642.5781,1642.8283,1648.8498,space,6.0168,,1648.8498,35,30,1649.8449,1649.8449,1649.85,,,,0,30,30,30,1,175,60,,,,,,,,
,,60768c72f4cc270141585ff8,65af57758ebdf7e17d6d5787,2024-01-23_08h07.52.166,bars,2023.2.3,Win32,60.24096386,657b66ea316d21385b68909f,,,,,,,,,,,1649.8502,1650.847,,,1651.3449,1651.5944,,152,152,,,,,,,,,,,,,,,,bars/016.png,bars/mask006.png,,,,,,,,,,,,2,2,,,,,,,6,4,6,4,,,,,,,,,,,1650.847,1651.3449,1651.5944,1655.0946,space,3.4953,,1655.0946,68,13,1656.0949,1656.0949,1656.1017,,,,0,31,31,31,1,40,165,,,,,,,,
,,60768c72f4cc270141585ff8,65af57758ebdf7e17d6d5787,2024-01-23_08h07.52.166,bars,2023.2.3,Win32,60.24096386,657b66ea316d21385b68909f,,,,,,,,,,,1656.1019,1657.0945,,,1657.5947,1657.8445,,140,320,,,,,,,,,,,,,,,,bars/037.png,bars/mask008.png,,,,,,,,,,,,5,1,,,,,,,8,2,7,3,,,,,,,,,,,1657.0945,1657.5947,1657.8446,1663.5776,space,5.7086,,1663.5776,10,35,1664.5777,1664.5777,1664.5828,,,,0,32,32,32,1,150,105,,,,,,,,
,,60768c72f4cc270141585ff8,65af57758ebdf7e17d6d5787,2024-01-23_08h07.52.166,bars,2023.2.3,Win32,60.24096386,657b66ea316d21385b68909f,,,,,,,,,,,1664.5829,1665.5777,,,1666.0656,1666.3115,,156,156,,,,,,,,,,,,,,,,bars/023.png,bars/mask003.png,,,,,,,,,,,,0,2,,,,,,,10,4,9,5,,,,,,,,,,,1665.5778,1666.0655,1666.3115,1669.7442,space,3.416,,1669.7442,44,41,1670.7441,1670.7441,1670.7501,,,,0,33,33,33,1,20,115,,,,,,,,
,,60768c72f4cc270141585ff8,65af57758ebdf7e17d6d5787,2024-01-23_08h07.52.166,bars,2023.2.3,Win32,60.24096386,657b66ea316d21385b68909f,,,,,,,,,,,1670.7501,1671.7491,,,1672.2442,1672.4994,,49,49,,,,,,,,,,,,,,,,bars/009.png,bars/mask002.png,,,,,,,,,,,,0,1,,,,,,,10,6,10,7,,,,,,,,,,,1671.7492,1672.2442,1672.4994,1678.8272,space,6.3226,,1678.8272,34,56,1679.8275,1679.8275,1679.8325,,,,0,34,34,34,1,15,105,,,,,,,,
,,60768c72f4cc270141585ff8,65af57758ebdf7e17d6d5787,2024-01-23_08h07.52.166,bars,2023.2.3,Win32,60.24096386,657b66ea316d21385b68909f,,,,,,,,,,,1679.8326,1680.8272,,,1681.3149,1681.5607,,140,140,,,,,,,,,,,,,,,,bars/003.png,bars/mask008.png,,,,,,,,,,,,9,2,,,,,,,8,8,9,9,,,,,,,,,,,1680.8272,1681.3149,1681.5607,1683.9773,space,2.4002,,1683.9773,65,0,1684.9771,1684.9771,1684.9785,,,,0,35,35,35,1,25,140,,,,,,,,
,,60768c72f4cc270141585ff8,65af57758ebdf7e17d6d5787,2024-01-23_08h07.52.166,bars,2023.2.3,Win32,60.24096386,657b66ea316d21385b68909f,,,,,,,,,,,1684.9787,1685.9772,,,1686.4771,1686.7148,,158,158,,,,,,,,,,,,,,,,bars/006.png,bars/mask006.png,,,,,,,,,,,,0,1,,,,,,,10,6,10,6,,,,,,,,,,,1685.9772,1686.4771,1686.7149,1716.6267,space,29.8861,,1716.6267,57,58,1717.627,1717.627,1717.6348,,,,0,36,36,36,1,35,100,,,,,,,,
,,60768c72f4cc270141585ff8,65af57758ebdf7e17d6d5787,2024-01-23_08h07.52.166,bars,2023.2.3,Win32,60.24096386,657b66ea316d21385b68909f,,,,,,,,,,,1717.6349,1718.627,,,1719.1269,1719.3769,,152,152,,,,,,,,,,,,,,,,bars/039.png,bars/mask003.png,,,,,,,,,,,,2,1,,,,,,,10,8,10,8,,,,,,,,,,,1718.627,1719.1269,1719.3769,1724.2101,space,4.8174,,1724.2101,23,47,1725.21,1725.21,1725.2145,,,,0,37,37,37,1,175,105,,,,,,,,
,,60768c72f4cc270141585ff8,65af57758ebdf7e17d6d5787,2024-01-23_08h07.52.166,bars,2023.2.3,Win32,60.24096386,657b66ea316d21385b68909f,,,,,,,,,,,1725.2145,1726.2099,,,1726.7103,1726.9602,,33,33,,,,,,,,,,,,,,,,bars/003.png,bars/mask006.png,,,,,,,,,,,,6,1,,,,,,,8,10,8,10,,,,,,,,,,,1726.2099,1726.7102,1726.9603,1731.1931,space,4.225,,1731.1931,8,73,1732.1981,1732.1981,1732.2049,,,,0,38,38,38,1,25,140,,,,,,,,
,,60768c72f4cc270141585ff8,65af57758ebdf7e17d6d5787,2024-01-23_08h07.52.166,bars,2023.2.3,Win32,60.24096386,657b66ea316d21385b68909f,,,,,,,,,,,1732.205,1733.1932,,,1733.6931,1733.9434,,0,0,,,,,,,,,,,,,,,,bars/021.png,bars/mask000.png,,,,,,,,,,,,2,1,,,,,,,10,8,10,9,,,,,,,,,,,1733.1932,1733.6931,1733.9434,1737.6099,space,3.652,,1737.6099,25,70,1738.6096,1738.6096,1738.6153,,,,0,39,39,39,1,155,70,,,,,,,,
,,60768c72f4cc270141585ff8,65af57758ebdf7e17d6d5787,2024-01-23_08h07.52.166,bars,2023.2.3,Win32,60.24096386,657b66ea316d21385b68909f,,,,,,,,,,,1738.6155,1739.6096,,,1740.1096,1740.3595,,131,131,,,,,,,,,,,,,,,,bars/011.png,bars/mask003.png,,,,,,,,,,,,0,1,,,,,,,10,6,9,6,,,,,,,,,,,1739.6097,1740.1095,1740.3595,1743.0267,space,2.6362,,1743.0267,29,46,1744.0262,1744.0262,1744.0308,,,,0,40,40,40,1,160,85,,,,,,,,
,,60768c72f4cc270141585ff8,65af57758ebdf7e17d6d5787,2024-01-23_08h07.52.166,bars,2023.2.3,Win32,60.24096386,657b66ea316d21385b68909f,,,,,,,,,,,1744.0308,1745.0262,,,1745.5265,1745.7763,,143,-37,,,,,,,,,,,,,,,,bars/049.png,bars/mask009.png,,,,,,,,,,,,4,1,,,,,,,10,8,10,7,,,,,,,,,,,1745.0262,1745.5265,1745.7763,1752.3928,space,6.6006,,1752.3928,17,28,1753.3814,1753.3814,1753.3885,,,,0,41,41,41,1,160,115,,,,,,,,
,,60768c72f4cc270141585ff8,65af57758ebdf7e17d6d5787,2024-01-23_08h07.52.166,bars,2023.2.3,Win32,60.24096386,657b66ea316d21385b68909f,,,,,,,,,,,1753.3887,1754.3928,,,1754.8981,1755.143,,134,134,,,,,,,,,,,,,,,,bars/037.png,bars/mask009.png,,,,,,,,,,,,4,1,,,,,,,8,10,8,10,,,,,,,,,,,1754.3928,1754.8981,1755.1431,1759.0097,space,3.8503,,1759.0097,16,29,1760.0094,1760.0094,1760.0161,,,,0,42,42,42,1,150,105,,,,,,,,
,,60768c72f4cc270141585ff8,65af57758ebdf7e17d6d5787,2024-01-23_08h07.52.166,bars,2023.2.3,Win32,60.24096386,657b66ea316d21385b68909f,,,,,,,,,,,1760.0163,1761.0095,,,1761.5095,1761.7595,,29,29,,,,,,,,,,,,,,,,bars/013.png,bars/mask002.png,,,,,,,,,,,,3,2,,,,,,,6,8,5,8,,,,,,,,,,,1761.0096,1761.5095,1761.7595,1764.2593,space,2.4839,,1764.2593,46,19,1765.2596,1765.2596,1765.2672,,,,0,43,43,43,1,75,10,,,,,,,,
,,60768c72f4cc270141585ff8,65af57758ebdf7e17d6d5787,2024-01-23_08h07.52.166,bars,2023.2.3,Win32,60.24096386,657b66ea316d21385b68909f,,,,,,,,,,,1765.2673,1766.2595,,,1766.7593,1767.0096,,176,-4,,,,,,,,,,,,,,,,bars/032.png,bars/mask003.png,,,,,,,,,,,,2,2,,,,,,,4,10,3,10,,,,,,,,,,,1766.2595,1766.7593,1767.0096,1772.0923,space,5.0717,,1772.0923,51,24,1773.0927,1773.0928,1773.0992,,,,0,44,44,44,1,125,20,,,,,,,,
,,60768c72f4cc270141585ff8,65af57758ebdf7e17d6d5787,2024-01-23_08h07.52.166,bars,2023.2.3,Win32,60.24096386,657b66ea316d21385b68909f,,,,,,,,,,,1773.0992,1774.0927,,,1774.5925,1774.8422,,148,148,,,,,,,,,,,,,,,,bars/043.png,bars/mask001.png,,,,,,,,,,,,3,2,,,,,,,6,8,7,8,,,,,,,,,,,1774.0927,1774.5925,1774.8422,1780.2256,space,5.3579,,1780.2257,62,18,1781.2259,1781.226,1781.2328,,,,0,45,45,45,1,30,130,,,,,,,,
,,60768c72f4cc270141585ff8,65af57758ebdf7e17d6d5787,2024-01-23_08h07.52.166,bars,2023.2.3,Win32,60.24096386,657b66ea316d21385b68909f,,,,,,,,,,,1781.233,1782.2301,,,1782.7259,1782.9755,,163,163,,,,,,,,,,,,,,,,bars/008.png,bars/mask002.png,,,,,,,,,,,,2,2,,,,,,,4,6,4,5,,,,,,,,,,,1782.2301,1782.7259,1782.9755,1786.2422,space,3.2339,,1786.2422,53,17,1787.2424,1787.2424,1787.2494,,,,0,46,46,46,1,110,0,,,,,,,,
,,60768c72f4cc270141585ff8,65af57758ebdf7e17d6d5787,2024-01-23_08h07.52.166,bars,2023.2.3,Win32,60.24096386,657b66ea316d21385b68909f,,,,,,,,,,,1787.2496,1788.2424,,,1788.7421,1788.9924,,153,-27,,,,,,,,,,,,,,,,bars/036.png,bars/mask008.png,,,,,,,,,,,,2,1,,,,,,,2,4,3,4,,,,,,,,,,,1788.2424,1788.7421,1788.9924,1792.4258,space,3.4167,,1792.4258,8,47,1793.4256,1793.4256,1793.4329,,,,0,47,47,47,1,145,20,,,,,,,,
,,60768c72f4cc270141585ff8,65af57758ebdf7e17d6d5787,2024-01-23_08h07.52.166,bars,2023.2.3,Win32,60.24096386,657b66ea316d21385b68909f,,,,,,,,,,,1793.433,1794.4256,,,1794.9254,1795.1639,,47,227,,,,,,,,,,,,,,,,bars/029.png,bars/mask003.png,,,,,,,,,,,,1,2,,,,,,,0,2,0,1,,,,,,,,,,,1794.4257,1794.9253,1795.1639,1799.2919,space,4.1045,,1799.2919,43,2,1800.2799,1800.2799,1800.2873,,,,0,48,48,48,1,90,45,,,,,,,,
,,60768c72f4cc270141585ff8,65af57758ebdf7e17d6d5787,2024-01-23_08h07.52.166,bars,2023.2.3,Win32,60.24096386,657b66ea316d21385b68909f,,,,,,,,,,,1800.2875,1801.2752,,,1801.7752,1802.0295,,160,-20,,,,,,,,,,,,,,,,bars/016.png,bars/mask006.png,,,,,,,,,,,,4,2,,,,,,,0,4,0,5,,,,,,,,,,,1801.2752,1801.7752,1802.0295,1808.1583,space,6.1243,,1808.1584,60,5,1809.1632,1809.1632,1809.1677,,,,0,49,49,49,1,40,165,,,,,,,,
,,60768c72f4cc270141585ff8,65af57758ebdf7e17d6d5787,2024-01-23_08h07.52.166,bars,2023.2.3,Win32,60.24096386,657b66ea316d21385b68909f,,,,,,,,,,,,,,,,,,,,,,,,,,,,,,,,,,,,,,,,,,,,,,,,,,,,,,,,,,,,,,,,,,,,,,,,,,,,,,,,,,,,,,,,,,,,,1809.1679,1869.1573,0,2,2,0,1,sequence_tables/blk047.csv
,,60768c72f4cc270141585ff8,65af57758ebdf7e17d6d5787,2024-01-23_08h07.52.166,bars,2023.2.3,Win32,60.24096386,657b66ea316d21385b68909f,,,,,,,,,,,2049.265,2050.2538,,,2050.7542,2051.0083,,135,135,,,,,,,,,,,,,,,,bars/042.png,bars/mask007.png,,,,,,,,,,,,7,1,,,,,,,10,7,10,6,,,,,,1869.1645,2049.2579,space,180.0787,,2050.2539,2050.7541,2051.0084,2055.2541,space,4.2308,,2055.2542,10,60,2056.254,2056.254,2056.259,,,,0,0,0,0,1,145,75,,,,,,,,
,,60768c72f4cc270141585ff8,65af57758ebdf7e17d6d5787,2024-01-23_08h07.52.166,bars,2023.2.3,Win32,60.24096386,657b66ea316d21385b68909f,,,,,,,,,,,2056.2591,2057.2539,,,2057.7542,2058.0038,,126,126,,,,,,,,,,,,,,,,bars/015.png,bars/mask009.png,,,,,,,,,,,,2,1,,,,,,,8,5,5,5,,,,,,,,,,,2057.254,2057.7541,2058.0039,2061.1872,space,3.1671,,2061.1873,16,34,2062.1869,2062.1869,2062.1915,,,,0,1,1,1,1,110,160,,,,,,,,
,,60768c72f4cc270141585ff8,65af57758ebdf7e17d6d5787,2024-01-23_08h07.52.166,bars,2023.2.3,Win32,60.24096386,657b66ea316d21385b68909f,,,,,,,,,,,2062.1917,2063.1873,,,2063.687,2063.9373,,46,46,,,,,,,,,,,,,,,,bars/010.png,bars/mask007.png,,,,,,,,,,,,2,2,,,,,,,10,3,10,3,,,,,,,,,,,2063.1873,2063.687,2063.9373,2071.2871,space,7.3339,,2071.2871,61,9,2072.2869,2072.2869,2072.292,,,,0,2,2,2,1,165,55,,,,,,,,
,,60768c72f4cc270141585ff8,65af57758ebdf7e17d6d5787,2024-01-23_08h07.52.166,bars,2023.2.3,Win32,60.24096386,657b66ea316d21385b68909f,,,,,,,,,,,2072.2921,2073.2869,,,2073.7872,2074.037,,105,105,,,,,,,,,,,,,,,,bars/041.png,bars/mask008.png,,,,,,,,,,,,0,2,,,,,,,10,1,10,1,,,,,,,,,,,2073.287,2073.7872,2074.037,2084.3415,space,10.2998,,2084.3416,85,20,2085.3367,2085.3367,2085.3416,,,,0,3,3,3,1,20,85,,,,,,,,
,,60768c72f4cc270141585ff8,65af57758ebdf7e17d6d5787,2024-01-23_08h07.52.166,bars,2023.2.3,Win32,60.24096386,657b66ea316d21385b68909f,,,,,,,,,,,2085.3417,2086.3368,,,2086.8367,2087.0866,,51,51,,,,,,,,,,,,,,,,bars/030.png,bars/mask007.png,,,,,,,,,,,,2,2,,,,,,,8,3,7,4,,,,,,,,,,,2086.3369,2086.8367,2087.0866,2094.0699,space,6.9669,,2094.07,89,14,2095.0702,2095.0702,2095.0774,,,,0,4,4,4,1,140,65,,,,,,,,
,,60768c72f4cc270141585ff8,65af57758ebdf7e17d6d5787,2024-01-23_08h07.52.166,bars,2023.2.3,Win32,60.24096386,657b66ea316d21385b68909f,,,,,,,,,,,2095.0775,2096.0701,,,2096.5698,2096.8199,,67,67,,,,,,,,,,,,,,,,bars/034.png,bars/mask007.png,,,,,,,,,,,,4,2,,,,,,,10,5,9,4,,,,,,,,,,,2096.0701,2096.5698,2096.82,2103.9199,space,7.0886,,2103.92,58,2,2104.92,2104.92,2104.9272,,,,0,5,5,5,1,125,65,,,,,,,,
,,60768c72f4cc270141585ff8,65af57758ebdf7e17d6d5787,2024-01-23_08h07.52.166,bars,2023.2.3,Win32,60.24096386,657b66ea316d21385b68909f,,,,,,,,,,,2104.9274,2105.9197,,,2106.42,2106.6697,,124,124,,,,,,,,,,,,,,,,bars/004.png,bars/mask008.png,,,,,,,,,,,,7,2,,,,,,,8,7,9,7,,,,,,,,,,,2105.9197,2106.42,2106.6697,2112.2863,space,5.5835,,2112.2863,81,1,2113.2861,2113.2861,2113.2905,,,,0,6,6,6,1,25,125,,,,,,,,
,,60768c72f4cc270141585ff8,65af57758ebdf7e17d6d5787,2024-01-23_08h07.52.166,bars,2023.2.3,Win32,60.24096386,657b66ea316d21385b68909f,,,,,,,,,,,2113.2906,2114.2862,,,2114.7863,2115.0361,,138,138,,,,,,,,,,,,,,,,bars/045.png,bars/mask000.png,,,,,,,,,,,,0,1,,,,,,,6,5,6,4,,,,,,,,,,,2114.2862,2114.7863,2115.0361,2120.486,space,5.4336,,2120.486,38,52,2121.4859,2121.486,2121.4922,,,,0,7,7,7,1,100,10,,,,,,,,
,,60768c72f4cc270141585ff8,65af57758ebdf7e17d6d5787,2024-01-23_08h07.52.166,bars,2023.2.3,Win32,60.24096386,657b66ea316d21385b68909f,,,,,,,,,,,2121.4924,2122.486,,,2122.986,2123.224,,56,56,,,,,,,,,,,,,,,,bars/034.png,bars/mask005.png,,,,,,,,,,,,6,2,,,,,,,8,7,9,9,,,,,,,,,,,2122.486,2122.986,2123.224,2126.5568,space,3.3286,,2126.5568,69,9,2127.553,2127.553,2127.5607,,,,0,8,8,8,1,125,65,,,,,,,,
,,60768c72f4cc270141585ff8,65af57758ebdf7e17d6d5787,2024-01-23_08h07.52.166,bars,2023.2.3,Win32,60.24096386,657b66ea316d21385b68909f,,,,,,,,,,,2127.561,2128.5529,,,2129.053,2129.3029,,130,130,,,,,,,,,,,,,,,,bars/043.png,bars/mask001.png,,,,,,,,,,,,9,2,,,,,,,10,9,10,9,,,,,,,,,,,2128.5529,2129.053,2129.3029,2134.9192,space,5.6056,,2134.9193,80,0,2135.9195,2135.9195,2135.9243,,,,0,9,9,9,1,30,130,,,,,,,,
,,60768c72f4cc270141585ff8,65af57758ebdf7e17d6d5787,2024-01-23_08h07.52.166,bars,2023.2.3,Win32,60.24096386,657b66ea316d21385b68909f,,,,,,,,,,,2135.9244,2136.9196,,,2137.4193,2137.6741,,46,46,,,,,,,,,,,,,,,,bars/023.png,bars/mask008.png,,,,,,,,,,,,1,1,,,,,,,10,10,10,10,,,,,,,,,,,2136.9196,2137.4192,2137.6741,2140.9358,space,3.2472,,2140.9358,26,69,2141.936,2141.9361,2141.9435,,,,0,10,10,10,1,20,115,,,,,,,,
,,60768c72f4cc270141585ff8,65af57758ebdf7e17d6d5787,2024-01-23_08h07.52.166,bars,2023.2.3,Win32,60.24096386,657b66ea316d21385b68909f,,,,,,,,,,,2141.9436,2142.9357,,,2143.4357,2143.686,,73,73,,,,,,,,,,,,,,,,bars/030.png,bars/mask001.png,,,,,,,,,,,,7,2,,,,,,,10,10,10,9,,,,,,,,,,,2142.9358,2143.4357,2143.6861,2147.7239,space,4.0334,,2147.7239,67,8,2148.7188,2148.7188,2148.7262,,,,0,11,11,11,1,140,65,,,,,,,,
,,60768c72f4cc270141585ff8,65af57758ebdf7e17d6d5787,2024-01-23_08h07.52.166,bars,2023.2.3,Win32,60.24096386,657b66ea316d21385b68909f,,,,,,,,,,,2148.7264,2149.7192,,,2150.2193,2150.4689,,115,115,,,,,,,,,,,,,,,,bars/034.png,bars/mask001.png,,,,,,,,,,,,5,1,,,,,,,8,8,7,9,,,,,,,,,,,2149.7192,2150.2193,2150.4689,2154.6855,space,4.1845,,2154.6855,10,50,2155.6854,2155.6854,2155.6927,,,,0,12,12,12,1,125,65,,,,,,,,
,,60768c72f4cc270141585ff8,65af57758ebdf7e17d6d5787,2024-01-23_08h07.52.166,bars,2023.2.3,Win32,60.24096386,657b66ea316d21385b68909f,,,,,,,,,,,2155.6928,2156.6854,,,2157.1858,2157.4354,,146,146,,,,,,,,,,,,,,,,bars/024.png,bars/mask003.png,,,,,,,,,,,,2,2,,,,,,,10,10,10,10,,,,,,,,,,,2156.6855,2157.1858,2157.4354,2161.9687,space,4.5171,,2161.9687,26,24,2162.9686,2162.9686,2162.9763,,,,0,13,13,13,1,120,170,,,,,,,,
,,60768c72f4cc270141585ff8,65af57758ebdf7e17d6d5787,2024-01-23_08h07.52.166,bars,2023.2.3,Win32,60.24096386,657b66ea316d21385b68909f,,,,,,,,,,,2162.9764,2163.9687,,,2164.4684,2164.7186,,116,116,,,,,,,,,,,,,,,,bars/028.png,bars/mask007.png,,,,,,,,,,,,9,2,,,,,,,10,10,10,10,,,,,,,,,,,2163.9688,2164.4684,2164.7187,2170.9357,space,6.2008,,2170.9357,71,4,2171.935,2171.9351,2171.9399,,,,0,14,14,14,1,45,120,,,,,,,,
,,60768c72f4cc270141585ff8,65af57758ebdf7e17d6d5787,2024-01-23_08h07.52.166,bars,2023.2.3,Win32,60.24096386,657b66ea316d21385b68909f,,,,,,,,,,,2171.94,2172.9354,,,2173.4356,2173.6903,,31,31,,,,,,,,,,,,,,,,bars/031.png,bars/mask001.png,,,,,,,,,,,,7,2,,,,,,,8,8,8,8,,,,,,,,,,,2172.9354,2173.4356,2173.6903,2177.3188,space,3.6119,,2177.3188,89,4,2178.3186,2178.3187,2178.3231,,,,0,15,15,15,1,120,35,,,,,,,,
,,60768c72f4cc270141585ff8,65af57758ebdf7e17d6d5787,2024-01-23_08h07.52.166,bars,2023.2.3,Win32,60.24096386,657b66ea316d21385b68909f,,,,,,,,,,,2178.3232,2179.3185,,,2179.8183,2180.0684,,11,11,,,,,,,,,,,,,,,,bars/014.png,bars/mask004.png,,,,,,,,,,,,5,2,,,,,,,6,10,5,8,,,,,,,,,,,2179.3186,2179.8183,2180.0685,2183.9853,space,3.9002,,2183.9854,69,11,2184.9852,2184.9852,2184.9897,,,,0,16,16,16,1,80,0,,,,,,,,
,,60768c72f4cc270141585ff8,65af57758ebdf7e17d6d5787,2024-01-23_08h07.52.166,bars,2023.2.3,Win32,60.24096386,657b66ea316d21385b68909f,,,,,,,,,,,2184.9898,2185.9849,,,2186.4853,2186.7353,,1,1,,,,,,,,,,,,,,,,bars/032.png,bars/mask000.png,,,,,,,,,,,,4,2,,,,,,,4,10,5,10,,,,,,,,,,,2185.9849,2186.4853,2186.7353,2196.4845,space,9.7447,,2196.4846,56,19,2197.4852,2197.4852,2197.4923,,,,0,17,17,17,1,125,20,,,,,,,,
,,60768c72f4cc270141585ff8,65af57758ebdf7e17d6d5787,2024-01-23_08h07.52.166,bars,2023.2.3,Win32,60.24096386,657b66ea316d21385b68909f,,,,,,,,,,,2197.4926,2198.4846,,,2198.9848,2199.235,,173,-7,,,,,,,,,,,,,,,,bars/008.png,bars/mask006.png,,,,,,,,,,,,7,2,,,,,,,6,8,5,9,,,,,,,,,,,2198.4846,2198.9848,2199.235,2206.7014,space,7.4501,,2206.7014,63,7,2207.7017,2207.7017,2207.709,,,,0,18,18,18,1,110,0,,,,,,,,
,,60768c72f4cc270141585ff8,65af57758ebdf7e17d6d5787,2024-01-23_08h07.52.166,bars,2023.2.3,Win32,60.24096386,657b66ea316d21385b68909f,,,,,,,,,,,2207.7091,2208.7017,,,2209.2012,2209.4515,,73,73,,,,,,,,,,,,,,,,bars/021.png,bars/mask009.png,,,,,,,,,,,,9,2,,,,,,,8,10,9,10,,,,,,,,,,,2208.7017,2209.2012,2209.4515,2213.651,space,4.1879,,2213.651,82,3,2214.651,2214.651,2214.6555,,,,0,19,19,19,1,155,70,,,,,,,,
,,60768c72f4cc270141585ff8,65af57758ebdf7e17d6d5787,2024-01-23_08h07.52.166,bars,2023.2.3,Win32,60.24096386,657b66ea316d21385b68909f,,,,,,,,,,,2214.6556,2215.6511,,,2216.1514,2216.401,,131,131,,,,,,,,,,,,,,,,bars/005.png,bars/mask002.png,,,,,,,,,,,,6,2,,,,,,,10,10,10,9,,,,,,,,,,,2215.6511,2216.1514,2216.4011,2221.5508,space,5.1336,,2221.5509,59,9,2222.5512,2222.5512,2222.5557,,,,0,20,20,20,1,10,140,,,,,,,,
,,60768c72f4cc270141585ff8,65af57758ebdf7e17d6d5787,2024-01-23_08h07.52.166,bars,2023.2.3,Win32,60.24096386,657b66ea316d21385b68909f,,,,,,,,,,,2222.5558,2223.5509,,,2224.0512,2224.301,,159,159,,,,,,,,,,,,,,,,bars/048.png,bars/mask006.png,,,,,,,,,,,,4,2,,,,,,,10,8,10,8,,,,,,,,,,,2223.5509,2224.0511,2224.301,2227.6007,space,3.2766,,2227.6007,71,16,2228.601,2228.601,2228.6056,,,,0,21,21,21,1,50,175,,,,,,,,
,,60768c72f4cc270141585ff8,65af57758ebdf7e17d6d5787,2024-01-23_08h07.52.166,bars,2023.2.3,Win32,60.24096386,657b66ea316d21385b68909f,,,,,,,,,,,2228.6056,2229.6009,,,2230.1034,2230.3511,,175,175,,,,,,,,,,,,,,,,bars/036.png,bars/mask002.png,,,,,,,,,,,,1,2,,,,,,,8,6,8,4,,,,,,,,,,,2229.6009,2230.1034,2230.3511,2233.2006,space,2.8336,,2233.2007,30,25,2234.2006,2234.2006,2234.2052,,,,0,22,22,22,1,145,20,,,,,,,,
,,60768c72f4cc270141585ff8,65af57758ebdf7e17d6d5787,2024-01-23_08h07.52.166,bars,2023.2.3,Win32,60.24096386,657b66ea316d21385b68909f,,,,,,,,,,,2234.2053,2235.201,,,2235.701,2235.9508,,52,52,,,,,,,,,,,,,,,,bars/017.png,bars/mask003.png,,,,,,,,,,,,3,2,,,,,,,6,4,5,4,,,,,,,,,,,2235.201,2235.701,2235.9509,2238.4007,space,2.4334,,2238.4007,87,7,2239.4009,2239.4009,2239.4063,,,,0,23,23,23,1,145,45,,,,,,,,
,,60768c72f4cc270141585ff8,65af57758ebdf7e17d6d5787,2024-01-23_08h07.52.166,bars,2023.2.3,Win32,60.24096386,657b66ea316d21385b68909f,,,,,,,,,,,2239.4065,2240.4009,,,2240.8891,2241.1343,,89,89,,,,,,,,,,,,,,,,bars/021.png,bars/mask008.png,,,,,,,,,,,,3,2,,,,,,,8,6,8,7,,,,,,,,,,,2240.4009,2240.8891,2241.1343,2244.9673,space,3.8205,,2244.9673,66,19,2245.9674,2245.9674,2245.9742,,,,0,24,24,24,1,155,70,,,,,,,,
,,60768c72f4cc270141585ff8,65af57758ebdf7e17d6d5787,2024-01-23_08h07.52.166,bars,2023.2.3,Win32,60.24096386,657b66ea316d21385b68909f,,,,,,,,,,,2245.9743,2246.9673,,,2247.4671,2247.7217,,121,121,,,,,,,,,,,,,,,,bars/048.png,bars/mask006.png,,,,,,,,,,,,0,2,,,,,,,6,8,7,7,,,,,,,,,,,2246.9673,2247.467,2247.7217,2250.4173,space,2.6794,,2250.4173,71,54,2251.4171,2251.4171,2251.4218,,,,0,25,25,25,1,50,175,,,,,,,,
,,60768c72f4cc270141585ff8,65af57758ebdf7e17d6d5787,2024-01-23_08h07.52.166,bars,2023.2.3,Win32,60.24096386,657b66ea316d21385b68909f,,,,,,,,,,,2251.4219,2252.4172,,,2252.9171,2253.167,,151,151,,,,,,,,,,,,,,,,bars/017.png,bars/mask001.png,,,,,,,,,,,,6,1,,,,,,,8,10,8,10,,,,,,,,,,,2252.4172,2252.9171,2253.167,2256.8337,space,3.6571,,2256.8337,6,74,2257.8334,2257.8335,2257.8403,,,,0,26,26,26,1,145,45,,,,,,,,
,,60768c72f4cc270141585ff8,65af57758ebdf7e17d6d5787,2024-01-23_08h07.52.166,bars,2023.2.3,Win32,60.24096386,657b66ea316d21385b68909f,,,,,,,,,,,2257.8403,2258.8339,,,2259.3337,2259.5839,,143,-37,,,,,,,,,,,,,,,,bars/040.png,bars/mask007.png,,,,,,,,,,,,5,1,,,,,,,6,10,6,10,,,,,,,,,,,2258.8339,2259.3337,2259.5839,2263.6669,space,4.0669,,2263.667,3,42,2264.6672,2264.6672,2264.674,,,,0,27,27,27,1,140,5,,,,,,,,
,,60768c72f4cc270141585ff8,65af57758ebdf7e17d6d5787,2024-01-23_08h07.52.166,bars,2023.2.3,Win32,60.24096386,657b66ea316d21385b68909f,,,,,,,,,,,2264.674,2265.6668,,,2266.1671,2266.4168,,144,144,,,,,,,,,,,,,,,,bars/003.png,bars/mask002.png,,,,,,,,,,,,9,2,,,,,,,8,10,9,10,,,,,,,,,,,2265.6668,2266.167,2266.4169,2271.5001,space,5.0769,,2271.5002,61,4,2272.5003,2272.5003,2272.5077,,,,0,28,28,28,1,25,140,,,,,,,,
,,60768c72f4cc270141585ff8,65af57758ebdf7e17d6d5787,2024-01-23_08h07.52.166,bars,2023.2.3,Win32,60.24096386,657b66ea316d21385b68909f,,,,,,,,,,,2272.5079,2273.5002,,,2274.0001,2274.2503,,93,273,,,,,,,,,,,,,,,,bars/045.png,bars/mask004.png,,,,,,,,,,,,8,1,,,,,,,10,10,10,10,,,,,,,,,,,2273.5003,2274.0001,2274.2503,2279.0665,space,4.8013,,2279.0665,7,83,2280.0713,2280.0713,2280.0763,,,,0,29,29,29,1,100,10,,,,,,,,
,,60768c72f4cc270141585ff8,65af57758ebdf7e17d6d5787,2024-01-23_08h07.52.166,bars,2023.2.3,Win32,60.24096386,657b66ea316d21385b68909f,,,,,,,,,,,2280.0764,2281.0668,,,2281.5667,2281.8168,,117,117,,,,,,,,,,,,,,,,bars/024.png,bars/mask005.png,,,,,,,,,,,,8,1,,,,,,,8,8,9,7,,,,,,,,,,,2281.0668,2281.5667,2281.8168,2285.5,space,3.6678,,2285.5,3,53,2286.4996,2286.4996,2286.5041,,,,0,30,30,30,1,120,170,,,,,,,,
,,60768c72f4cc270141585ff8,65af57758ebdf7e17d6d5787,2024-01-23_08h07.52.166,bars,2023.2.3,Win32,60.24096386,657b66ea316d21385b68909f,,,,,,,,,,,2286.5042,2287.4998,,,2287.9998,2288.2498,,64,64,,,,,,,,,,,,,,,,bars/026.png,bars/mask008.png,,,,,,,,,,,,2,2,,,,,,,10,6,8,8,,,,,,,,,,,2287.4998,2287.9997,2288.2498,2290.8164,space,2.557,,2290.8164,29,21,2291.8165,2291.8166,2291.8172,,,,0,31,31,31,1,35,85,,,,,,,,
,,60768c72f4cc270141585ff8,65af57758ebdf7e17d6d5787,2024-01-23_08h07.52.166,bars,2023.2.3,Win32,60.24096386,657b66ea316d21385b68909f,,,,,,,,,,,2291.8173,2292.8164,,,2293.3168,2293.5664,,55,55,,,,,,,,,,,,,,,,bars/004.png,bars/mask002.png,,,,,,,,,,,,0,1,,,,,,,10,8,10,9,,,,,,,,,,,2292.8165,2293.3167,2293.5665,2367.1983,space,73.617,,2367.1983,30,70,2368.1983,2368.1984,2368.2062,,,,0,32,32,32,1,25,125,,,,,,,,
,,60768c72f4cc270141585ff8,65af57758ebdf7e17d6d5787,2024-01-23_08h07.52.166,bars,2023.2.3,Win32,60.24096386,657b66ea316d21385b68909f,,,,,,,,,,,2368.2063,2369.1986,,,2369.6984,2369.9482,,50,50,,,,,,,,,,,,,,,,bars/015.png,bars/mask001.png,,,,,,,,,,,,0,1,,,,,,,10,10,10,10,,,,,,,,,,,2369.1986,2369.6984,2369.9482,2377.2315,space,7.2788,,2377.2315,60,70,2378.2314,2378.2314,2378.2388,,,,0,33,33,33,1,110,160,,,,,,,,
,,60768c72f4cc270141585ff8,65af57758ebdf7e17d6d5787,2024-01-23_08h07.52.166,bars,2023.2.3,Win32,60.24096386,657b66ea316d21385b68909f,,,,,,,,,,,2378.2389,2379.2316,,,2379.7318,2379.9816,,142,142,,,,,,,,,,,,,,,,bars/040.png,bars/mask000.png,,,,,,,,,,,,7,1,,,,,,,8,8,7,9,,,,,,,,,,,2379.2317,2379.7317,2379.9816,2386.0815,space,6.0834,,2386.0815,2,43,2387.0811,2387.0811,2387.0859,,,,0,34,34,34,1,140,5,,,,,,,,
,,60768c72f4cc270141585ff8,65af57758ebdf7e17d6d5787,2024-01-23_08h07.52.166,bars,2023.2.3,Win32,60.24096386,657b66ea316d21385b68909f,,,,,,,,,,,2387.086,2388.0813,,,2388.5864,2388.8316,,167,167,,,,,,,,,,,,,,,,bars/036.png,bars/mask009.png,,,,,,,,,,,,2,1,,,,,,,6,10,6,9,,,,,,,,,,,2388.0814,2388.5864,2388.8316,2391.948,space,3.0998,,2391.948,22,33,2392.9481,2392.9481,2392.955,,,,0,35,35,35,1,145,20,,,,,,,,
,,60768c72f4cc270141585ff8,65af57758ebdf7e17d6d5787,2024-01-23_08h07.52.166,bars,2023.2.3,Win32,60.24096386,657b66ea316d21385b68909f,,,,,,,,,,,2392.9552,2393.9481,,,2394.448,2394.6981,,136,136,,,,,,,,,,,,,,,,bars/006.png,bars/mask002.png,,,,,,,,,,,,0,2,,,,,,,4,8,3,6,,,,,,,,,,,2393.9481,2394.448,2394.6981,2396.8479,space,2.1392,,2396.8479,79,36,2397.8479,2397.8479,2397.8491,,,,0,36,36,36,1,35,100,,,,,,,,
,,60768c72f4cc270141585ff8,65af57758ebdf7e17d6d5787,2024-01-23_08h07.52.166,bars,2023.2.3,Win32,60.24096386,657b66ea316d21385b68909f,,,,,,,,,,,2397.8493,2398.8481,,,2399.3479,2399.5976,,28,28,,,,,,,,,,,,,,,,bars/010.png,bars/mask008.png,,,,,,,,,,,,1,2,,,,,,,6,10,6,10,,,,,,,,,,,2398.8482,2399.3479,2399.5976,2404.6647,space,5.05,,2404.6647,43,27,2405.6646,2405.6646,2405.6714,,,,0,37,37,37,1,165,55,,,,,,,,
,,60768c72f4cc270141585ff8,65af57758ebdf7e17d6d5787,2024-01-23_08h07.52.166,bars,2023.2.3,Win32,60.24096386,657b66ea316d21385b68909f,,,,,,,,,,,2405.6715,2406.6646,,,2407.1647,2407.4146,,131,131,,,,,,,,,,,,,,,,bars/021.png,bars/mask008.png,,,,,,,,,,,,2,1,,,,,,,8,10,10,10,,,,,,,,,,,2406.6647,2407.1647,2407.4147,2412.5142,space,5.0836,,2412.5142,24,61,2413.5144,2413.5144,2413.5219,,,,0,38,38,38,1,155,70,,,,,,,,
,,60768c72f4cc270141585ff8,65af57758ebdf7e17d6d5787,2024-01-23_08h07.52.166,bars,2023.2.3,Win32,60.24096386,657b66ea316d21385b68909f,,,,,,,,,,,2413.5222,2414.5141,,,2415.0144,2415.2645,,139,139,,,,,,,,,,,,,,,,bars/008.png,bars/mask000.png,,,,,,,,,,,,0,1,,,,,,,10,8,9,7,,,,,,,,,,,2414.5141,2415.0144,2415.2645,2418.0639,space,2.7948,,2418.0639,29,41,2419.0641,2419.0641,2419.0686,,,,0,39,39,39,1,110,0,,,,,,,,
,,60768c72f4cc270141585ff8,65af57758ebdf7e17d6d5787,2024-01-23_08h07.52.166,bars,2023.2.3,Win32,60.24096386,657b66ea316d21385b68909f,,,,,,,,,,,2419.0687,2420.0644,,,2420.5642,2420.8144,,143,143,,,,,,,,,,,,,,,,bars/017.png,bars/mask007.png,,,,,,,,,,,,8,1,,,,,,,10,6,9,5,,,,,,,,,,,2420.0644,2420.5642,2420.8144,2426.2806,space,5.4561,,2426.2806,2,82,2427.2803,2427.2803,2427.285,,,,0,40,40,40,1,145,45,,,,,,,,
,,60768c72f4cc270141585ff8,65af57758ebdf7e17d6d5787,2024-01-23_08h07.52.166,bars,2023.2.3,Win32,60.24096386,657b66ea316d21385b68909f,,,,,,,,,,,2427.285,2428.2807,,,2428.7686,2429.0139,,126,126,,,,,,,,,,,,,,,,bars/018.png,bars/mask008.png,,,,,,,,,,,,2,1,,,,,,,10,4,9,5,,,,,,,,,,,2428.2807,2428.7686,2429.014,2432.2637,space,3.2339,,2432.2637,24,36,2433.2639,2433.2639,2433.2709,,,,0,41,41,41,1,150,90,,,,,,,,
,,60768c72f4cc270141585ff8,65af57758ebdf7e17d6d5787,2024-01-23_08h07.52.166,bars,2023.2.3,Win32,60.24096386,657b66ea316d21385b68909f,,,,,,,,,,,2433.271,2434.2646,,,2434.7642,2435.0141,,50,50,,,,,,,,,,,,,,,,bars/035.png,bars/mask003.png,,,,,,,,,,,,1,2,,,,,,,8,2,10,2,,,,,,,,,,,2434.2647,2434.7641,2435.0141,2441.0182,space,5.9996,,2441.0182,55,10,2442.0136,2442.0136,2442.0211,,,,0,42,42,42,1,175,60,,,,,,,,
,,60768c72f4cc270141585ff8,65af57758ebdf7e17d6d5787,2024-01-23_08h07.52.166,bars,2023.2.3,Win32,60.24096386,657b66ea316d21385b68909f,,,,,,,,,,,2442.0212,2443.014,,,2443.5139,2443.7636,,35,35,,,,,,,,,,,,,,,,bars/019.png,bars/mask000.png,,,,,,,,,,,,4,1,,,,,,,6,4,6,3,,,,,,,,,,,2443.014,2443.5139,2443.7636,2450.3471,space,6.5533,,2450.3471,10,70,2451.3468,2451.3468,2451.3544,,,,0,43,43,43,1,45,105,,,,,,,,
,,60768c72f4cc270141585ff8,65af57758ebdf7e17d6d5787,2024-01-23_08h07.52.166,bars,2023.2.3,Win32,60.24096386,657b66ea316d21385b68909f,,,,,,,,,,,2451.3545,2452.3469,,,2452.8468,2453.0966,,51,51,,,,,,,,,,,,,,,,bars/012.png,bars/mask006.png,,,,,,,,,,,,0,2,,,,,,,4,2,4,4,,,,,,,,,,,2452.3469,2452.8468,2453.0966,2457.6298,space,4.528,,2457.6299,39,36,2458.6299,2458.63,2458.6377,,,,0,44,44,44,1,90,15,,,,,,,,
,,60768c72f4cc270141585ff8,65af57758ebdf7e17d6d5787,2024-01-23_08h07.52.166,bars,2023.2.3,Win32,60.24096386,657b66ea316d21385b68909f,,,,,,,,,,,2458.6378,2459.6304,,,2460.1303,2460.3798,,55,235,,,,,,,,,,,,,,,,bars/025.png,bars/mask009.png,,,,,,,,,,,,1,2,,,,,,,2,0,2,2,,,,,,,,,,,2459.6304,2460.1303,2460.3799,2465.2798,space,4.8861,,2465.2798,50,15,2466.2802,2466.2802,2466.2869,,,,0,45,45,45,1,105,40,,,,,,,,
,,60768c72f4cc270141585ff8,65af57758ebdf7e17d6d5787,2024-01-23_08h07.52.166,bars,2023.2.3,Win32,60.24096386,657b66ea316d21385b68909f,,,,,,,,,,,2466.287,2467.2801,,,2467.7834,2468.0302,,127,127,,,,,,,,,,,,,,,,bars/027.png,bars/mask004.png,,,,,,,,,,,,2,1,,,,,,,4,0,5,0,,,,,,,,,,,2467.2801,2467.7834,2468.0302,2473.2463,space,5.2,,2473.2463,17,77,2474.2466,2474.2467,2474.2517,,,,0,46,46,46,1,110,50,,,,,,,,
,,60768c72f4cc270141585ff8,65af57758ebdf7e17d6d5787,2024-01-23_08h07.52.166,bars,2023.2.3,Win32,60.24096386,657b66ea316d21385b68909f,,,,,,,,,,,2474.2519,2475.2462,,,2475.7467,2475.9964,,41,41,,,,,,,,,,,,,,,,bars/022.png,bars/mask007.png,,,,,,,,,,,,1,2,,,,,,,2,2,3,3,,,,,,,,,,,2475.2462,2475.7466,2475.9964,2489.1295,space,13.1184,,2489.1295,54,21,2490.1298,2490.1298,2490.1376,,,,0,47,47,47,1,95,20,,,,,,,,
,,60768c72f4cc270141585ff8,65af57758ebdf7e17d6d5787,2024-01-23_08h07.52.166,bars,2023.2.3,Win32,60.24096386,657b66ea316d21385b68909f,,,,,,,,,,,2490.1378,2491.1292,,,2491.6293,2491.8797,,70,70,,,,,,,,,,,,,,,,bars/025.png,bars/mask002.png,,,,,,,,,,,,0,2,,,,,,,0,4,0,3,,,,,,,,,,,2491.1292,2491.6293,2491.8797,2496.6126,space,4.7188,,2496.6127,35,30,2497.6009,2497.6009,2497.6054,,,,0,48,48,48,1,105,40,,,,,,,,
,,60768c72f4cc270141585ff8,65af57758ebdf7e17d6d5787,2024-01-23_08h07.52.166,bars,2023.2.3,Win32,60.24096386,657b66ea316d21385b68909f,,,,,,,,,,,2497.6055,2498.5957,,,2499.0962,2499.3459,,110,110,,,,,,,,,,,,,,,,bars/039.png,bars/mask006.png,,,,,,,,,,,,2,2,,,,,,,0,2,1,2,,,,,,,,,,,2498.5958,2499.0962,2499.3459,2501.6844,space,2.3342,,2501.6845,65,5,2502.6795,2502.6796,2502.6857,,,,0,49,49,49,1,175,105,,,,,,,,
,,60768c72f4cc270141585ff8,65af57758ebdf7e17d6d5787,2024-01-23_08h07.52.166,bars,2023.2.3,Win32,60.24096386,657b66ea316d21385b68909f,,,,,,,,,,,,,,,,,,,,,,,,,,,,,,,,,,,,,,,,,,,,,,,,,,,,,,,,,,,,,,,,,,,,,,,,,,,,,,,,,,,,,,,,,,,,,2502.6858,2562.6781,0,3,3,3,1,sequence_tables/blk039.csv
,,60768c72f4cc270141585ff8,65af57758ebdf7e17d6d5787,2024-01-23_08h07.52.166,bars,2023.2.3,Win32,60.24096386,657b66ea316d21385b68909f,,,,,,,,,,,2684.3657,2685.3595,,,2685.8592,2686.1094,,133,133,,,,,,,,,,,,,,,,bars/015.png,bars/mask003.png,,,,,,,,,,,,2,1,,,,,,,7,3,7,3,,,,,,2562.6829,2684.3592,space,121.6481,,2685.3596,2685.8592,2686.1094,2689.0259,space,2.8883,,2689.0259,23,27,2690.0261,2690.0262,2690.0337,,,,0,0,0,0,1,110,160,,,,,,,,
,,60768c72f4cc270141585ff8,65af57758ebdf7e17d6d5787,2024-01-23_08h07.52.166,bars,2023.2.3,Win32,60.24096386,657b66ea316d21385b68909f,,,,,,,,,,,2690.034,2691.0262,,,2691.5261,2691.7758,,30,210,,,,,,,,,,,,,,,,bars/007.png,bars/mask006.png,,,,,,,,,,,,0,2,,,,,,,5,1,7,0,,,,,,,,,,,2691.0262,2691.5261,2691.7758,2696.476,space,4.684,,2696.476,35,25,2697.4802,2697.4802,2697.4853,,,,0,1,1,1,1,175,55,,,,,,,,
,,60768c72f4cc270141585ff8,65af57758ebdf7e17d6d5787,2024-01-23_08h07.52.166,bars,2023.2.3,Win32,60.24096386,657b66ea316d21385b68909f,,,,,,,,,,,2697.4854,2698.476,,,2698.9758,2699.2256,,117,117,,,,,,,,,,,,,,,,bars/034.png,bars/mask005.png,,,,,,,,,,,,3,1,,,,,,,7,3,4,2,,,,,,,,,,,2698.476,2698.9758,2699.2256,2702.5421,space,3.307,,2702.5421,8,52,2703.5426,2703.5426,2703.55,,,,0,2,2,2,1,125,65,,,,,,,,
,,60768c72f4cc270141585ff8,65af57758ebdf7e17d6d5787,2024-01-23_08h07.52.166,bars,2023.2.3,Win32,60.24096386,657b66ea316d21385b68909f,,,,,,,,,,,2703.55,2704.5423,,,2705.0425,2705.2926,,124,124,,,,,,,,,,,,,,,,bars/001.png,bars/mask000.png,,,,,,,,,,,,8,1,,,,,,,9,5,10,5,,,,,,,,,,,2704.5423,2705.0425,2705.2926,2709.1592,space,3.8502,,2709.1593,6,39,2710.1588,2710.1588,2710.1649,,,,0,3,3,3,1,130,85,,,,,,,,
,,60768c72f4cc270141585ff8,65af57758ebdf7e17d6d5787,2024-01-23_08h07.52.166,bars,2023.2.3,Win32,60.24096386,657b66ea316d21385b68909f,,,,,,,,,,,2710.165,2711.1591,,,2711.6592,2711.9091,,20,20,,,,,,,,,,,,,,,,bars/035.png,bars/mask006.png,,,,,,,,,,,,2,1,,,,,,,10,7,10,6,,,,,,,,,,,2711.1591,2711.659,2711.9091,2719.4091,space,7.4896,,2719.4091,25,40,2720.4088,2720.4089,2720.4161,,,,0,4,4,4,1,175,60,,,,,,,,
,,60768c72f4cc270141585ff8,65af57758ebdf7e17d6d5787,2024-01-23_08h07.52.166,bars,2023.2.3,Win32,60.24096386,657b66ea316d21385b68909f,,,,,,,,,,,2720.4162,2721.4089,,,2721.9088,2722.1638,,88,88,,,,,,,,,,,,,,,,bars/035.png,bars/mask001.png,,,,,,,,,,,,0,2,,,,,,,10,5,10,5,,,,,,,,,,,2721.4089,2721.9087,2722.1639,2723.3585,space,1.1893,,2723.3586,87,28,2724.3589,2724.3589,2724.36,,,,0,5,5,5,1,175,60,,,,,,,,
,,60768c72f4cc270141585ff8,65af57758ebdf7e17d6d5787,2024-01-23_08h07.52.166,bars,2023.2.3,Win32,60.24096386,657b66ea316d21385b68909f,,,,,,,,,,,2724.3601,2725.3583,,,2725.8588,2726.1089,,125,125,,,,,,,,,,,,,,,,bars/041.png,bars/mask000.png,,,,,,,,,,,,0,2,,,,,,,10,7,10,7,,,,,,,,,,,2725.3583,2725.8588,2726.1089,2729.175,space,3.0602,,2729.1751,75,40,2730.175,2730.175,2730.1796,,,,0,6,6,6,1,20,85,,,,,,,,
,,60768c72f4cc270141585ff8,65af57758ebdf7e17d6d5787,2024-01-23_08h07.52.166,bars,2023.2.3,Win32,60.24096386,657b66ea316d21385b68909f,,,,,,,,,,,2730.1796,2731.1803,,,2731.6754,2731.9255,,55,55,,,,,,,,,,,,,,,,bars/026.png,bars/mask002.png,,,,,,,,,,,,3,1,,,,,,,8,5,8,6,,,,,,,,,,,2731.1803,2731.6754,2731.9255,2735.8915,space,3.9495,,2735.8915,20,30,2736.892,2736.892,2736.8996,,,,0,7,7,7,1,35,85,,,,,,,,
,,60768c72f4cc270141585ff8,65af57758ebdf7e17d6d5787,2024-01-23_08h07.52.166,bars,2023.2.3,Win32,60.24096386,657b66ea316d21385b68909f,,,,,,,,,,,2736.8998,2737.8967,,,2738.392,2738.6415,,88,88,,,,,,,,,,,,,,,,bars/004.png,bars/mask002.png,,,,,,,,,,,,0,2,,,,,,,6,7,4,7,,,,,,,,,,,2737.8967,2738.392,2738.6415,2740.6082,space,1.9529,,2740.6082,63,37,2741.6082,2741.6082,2741.6155,,,,0,8,8,8,1,25,125,,,,,,,,
,,60768c72f4cc270141585ff8,65af57758ebdf7e17d6d5787,2024-01-23_08h07.52.166,bars,2023.2.3,Win32,60.24096386,657b66ea316d21385b68909f,,,,,,,,,,,2741.6157,2742.6086,,,2743.1085,2743.3582,,153,153,,,,,,,,,,,,,,,,bars/004.png,bars/mask007.png,,,,,,,,,,,,1,2,,,,,,,4,9,4,9,,,,,,,,,,,2742.6086,2743.1085,2743.3582,2745.88,space,2.5173,,2745.88,52,28,2746.8747,2746.8748,2746.8792,,,,0,9,9,9,1,25,125,,,,,,,,
,,60768c72f4cc270141585ff8,65af57758ebdf7e17d6d5787,2024-01-23_08h07.52.166,bars,2023.2.3,Win32,60.24096386,657b66ea316d21385b68909f,,,,,,,,,,,2746.8794,2747.8749,,,2748.375,2748.613,,63,63,,,,,,,,,,,,,,,,bars/026.png,bars/mask001.png,,,,,,,,,,,,1,2,,,,,,,2,7,3,5,,,,,,,,,,,2747.8749,2748.375,2748.613,2750.7913,space,2.1698,,2750.7914,28,22,2751.7917,2751.7917,2751.7984,,,,0,10,10,10,1,35,85,,,,,,,,
,,60768c72f4cc270141585ff8,65af57758ebdf7e17d6d5787,2024-01-23_08h07.52.166,bars,2023.2.3,Win32,60.24096386,657b66ea316d21385b68909f,,,,,,,,,,,2751.7985,2752.7915,,,2753.2915,2753.5414,,155,155,,,,,,,,,,,,,,,,bars/049.png,bars/mask001.png,,,,,,,,,,,,0,1,,,,,,,0,5,0,6,,,,,,,,,,,2752.7916,2753.2915,2753.5414,2758.5576,space,5.0095,,2758.5576,5,40,2759.5577,2759.5578,2759.5628,,,,0,11,11,11,1,160,115,,,,,,,,
