init_variables.started,init_variables.stopped,participant,session,date,expName,psychopyVersion,OS,frameRate,study_id,instruction_exp.started,instruction_exp.stopped,key_resp_8.keys,key_resp_8.rt,key_resp_8.duration,instruction_single.started,instruction_single.stopped,key_resp_2.keys,key_resp_2.rt,key_resp_2.duration,interval.started,interval.stopped,cue_single.started,cue_single.stopped,mask.started,mask.stopped,ori_response_single.started,res_ori,res,ori_response_single.stopped,key_resp_single.keys,key_resp_single.rt,key_resp_single.duration,disp_single.started,disp_single.stopped,key_resp.keys,key_resp.rt,key_resp.duration,single.thisRepN,single.thisTrialN,single.thisN,single.thisIndex,single.ran,ori,path,mask_path,instruction_bandit.started,instruction_bandit.stopped,key_resp_6.keys,key_resp_6.rt,key_resp_6.duration,cue_bandit.started,cue_bandit.stopped,bandit_res.keys,bandit_res.rt,bandit_res.duration,outcome_bandit.started,rew,action,outcome_bandit.stopped,bandit.thisRepN,bandit.thisTrialN,bandit.thisN,bandit.thisIndex,bandit.ran,actual_rew1,actual_rew2,rew1,rew2,instruction_task.started,instruction_task.stopped,key_resp_7.keys,key_resp_7.rt,key_resp_7.duration,wait_ready.started,wait_ready.stopped,key_resp_3.keys,key_resp_3.rt,key_resp_3.duration,cue.started,cue.stopped,ori_response.started,ori_response.stopped,key_resp_5.keys,key_resp_5.rt,key_resp_5.duration,outcome.started,diff1,diff2,outcome.stopped,disp_outcome_practice.started,disp_outcome_practice.stopped,key_resp_4.keys,key_resp_4.rt,key_resp_4.duration,trials.thisRepN,trials.thisTrialN,trials.thisN,trials.thisIndex,trials.ran,ori1,ori2,break_blk.started,break_blk.stopped,block.thisRepN,block.thisTrialN,block.thisN,block.thisIndex,block.ran,condition_file
0.0007,0.0011,60a252f3da4306c3c3de2889,65af5579f3ebe8cc90bc71b7,2024-01-23_08h59.11.962,bars,2023.2.3,Win32,60.24096386,657b66ea316d21385b68909f,,,,,,,,,,,,,,,,,,,,,,,,,,,,,,,,,,,,,,,,,,,,,,,,,,,,,,,,,,,,,,,,,,,,,,,,,,,,,,,,,,,,,,,,,,,,,,,,,,,,
,,60a252f3da4306c3c3de2889,65af5579f3ebe8cc90bc71b7,2024-01-23_08h59.11.962,bars,2023.2.3,Win32,60.24096386,657b66ea316d21385b68909f,0.0016,5.8891,y,5.8503,,,,,,,,,,,,,,,,,,,,,,,,,,,,,,,,,,,,,,,,,,,,,,,,,,,,,,,,,,,,,,,,,,,,,,,,,,,,,,,,,,,,,,,,,,,,,,,,
,,60a252f3da4306c3c3de2889,65af5579f3ebe8cc90bc71b7,2024-01-23_08h59.11.962,bars,2023.2.3,Win32,60.24096386,657b66ea316d21385b68909f,,,,,,5.8896,23.3019,space,17.3847,,,,,,,,,,,,,,,,,,,,,,,,,,,,,,,,,,,,,,,,,,,,,,,,,,,,,,,,,,,,,,,,,,,,,,,,,,,,,,,,,,,,,,,,,,,
,,60a252f3da4306c3c3de2889,65af5579f3ebe8cc90bc71b7,2024-01-23_08h59.11.962,bars,2023.2.3,Win32,60.24096386,657b66ea316d21385b68909f,,,,,,,,,,,23.3153,24.3138,24.3142,24.8142,24.8146,25.0638,25.0641,135,135,31.3293,space,6.1966,,31.3297,38.6257,space,7.2677,,0,0,0,2,1,145,bars/single002.png,bars/mask003.png,,,,,,,,,,,,,,,,,,,,,,,,,,,,,,,,,,,,,,,,,,,,,,,,,,,,,,,,,,,,,,,,
,,60a252f3da4306c3c3de2889,65af5579f3ebe8cc90bc71b7,2024-01-23_08h59.11.962,bars,2023.2.3,Win32,60.24096386,657b66ea316d21385b68909f,,,,,,,,,,,38.654,39.6397,39.6397,40.1396,40.1396,40.3898,40.3898,45,45,43.9219,space,3.5139,,43.922,47.1702,space,3.2013,,0,1,1,3,1,20,bars/single003.png,bars/mask005.png,,,,,,,,,,,,,,,,,,,,,,,,,,,,,,,,,,,,,,,,,,,,,,,,,,,,,,,,,,,,,,,,
,,60a252f3da4306c3c3de2889,65af5579f3ebe8cc90bc71b7,2024-01-23_08h59.11.962,bars,2023.2.3,Win32,60.24096386,657b66ea316d21385b68909f,,,,,,,,,,,47.1709,48.1693,48.1693,48.6696,48.6697,48.9192,48.9192,45,45,51.1185,space,2.1831,,51.1185,52.734,space,1.6017,,0,2,2,9,1,20,bars/single009.png,bars/mask006.png,,,,,,,,,,,,,,,,,,,,,,,,,,,,,,,,,,,,,,,,,,,,,,,,,,,,,,,,,,,,,,,,
,,60a252f3da4306c3c3de2889,65af5579f3ebe8cc90bc71b7,2024-01-23_08h59.11.962,bars,2023.2.3,Win32,60.24096386,657b66ea316d21385b68909f,,,,,,,,,,,52.7344,53.7336,53.7336,54.2333,54.2333,54.4834,54.4834,170,-10,57.2157,space,2.7145,,57.2157,60.0311,space,2.7992,,0,3,3,0,1,150,bars/single000.png,bars/mask006.png,,,,,,,,,,,,,,,,,,,,,,,,,,,,,,,,,,,,,,,,,,,,,,,,,,,,,,,,,,,,,,,,
,,60a252f3da4306c3c3de2889,65af5579f3ebe8cc90bc71b7,2024-01-23_08h59.11.962,bars,2023.2.3,Win32,60.24096386,657b66ea316d21385b68909f,,,,,,,,,,,60.0577,61.0476,61.0477,61.5474,61.5476,61.7968,61.7969,11,11,66.4788,space,4.6654,,66.4789,67.7773,space,1.2513,,0,4,4,1,1,20,bars/single001.png,bars/mask006.png,,,,,,,,,,,,,,,,,,,,,,,,,,,,,,,,,,,,,,,,,,,,,,,,,,,,,,,,,,,,,,,,
,,60a252f3da4306c3c3de2889,65af5579f3ebe8cc90bc71b7,2024-01-23_08h59.11.962,bars,2023.2.3,Win32,60.24096386,657b66ea316d21385b68909f,,,,,,,,,,,67.7777,68.7769,68.7769,69.2766,69.2766,69.5265,69.5266,87,87,73.7913,space,4.2486,,73.7914,74.841,space,1.0146,,0,5,5,4,1,95,bars/single004.png,bars/mask004.png,,,,,,,,,,,,,,,,,,,,,,,,,,,,,,,,,,,,,,,,,,,,,,,,,,,,,,,,,,,,,,,,
,,60a252f3da4306c3c3de2889,65af5579f3ebe8cc90bc71b7,2024-01-23_08h59.11.962,bars,2023.2.3,Win32,60.24096386,657b66ea316d21385b68909f,,,,,,,,,,,74.8415,75.8403,75.8404,76.3402,76.3403,76.59,76.5901,25,25,80.4384,space,3.8373,,80.4384,81.1379,space,0.6684,,0,6,6,7,1,45,bars/single007.png,bars/mask009.png,,,,,,,,,,,,,,,,,,,,,,,,,,,,,,,,,,,,,,,,,,,,,,,,,,,,,,,,,,,,,,,,
,,60a252f3da4306c3c3de2889,65af5579f3ebe8cc90bc71b7,2024-01-23_08h59.11.962,bars,2023.2.3,Win32,60.24096386,657b66ea316d21385b68909f,,,,,,,,,,,81.1383,82.1375,82.1375,82.6373,82.6373,82.8872,82.8872,149,-31,86.8689,space,3.969,,86.8689,88.5185,space,1.62,,0,7,7,8,1,160,bars/single008.png,bars/mask004.png,,,,,,,,,,,,,,,,,,,,,,,,,,,,,,,,,,,,,,,,,,,,,,,,,,,,,,,,,,,,,,,,
,,60a252f3da4306c3c3de2889,65af5579f3ebe8cc90bc71b7,2024-01-23_08h59.11.962,bars,2023.2.3,Win32,60.24096386,657b66ea316d21385b68909f,,,,,,,,,,,88.519,89.5178,89.5178,90.0182,90.0183,90.2675,90.2675,175,-5,91.4,space,1.1195,,91.4,93.2166,space,1.7981,,0,8,8,6,1,175,bars/single006.png,bars/mask005.png,,,,,,,,,,,,,,,,,,,,,,,,,,,,,,,,,,,,,,,,,,,,,,,,,,,,,,,,,,,,,,,,
,,60a252f3da4306c3c3de2889,65af5579f3ebe8cc90bc71b7,2024-01-23_08h59.11.962,bars,2023.2.3,Win32,60.24096386,657b66ea316d21385b68909f,,,,,,,,,,,93.2172,94.2158,94.2158,94.7155,94.7156,94.9655,94.9655,84,84,97.9971,space,3.0157,,97.9971,98.5469,space,0.5277,,0,9,9,5,1,55,bars/single005.png,bars/mask008.png,,,,,,,,,,,,,,,,,,,,,,,,,,,,,,,,,,,,,,,,,,,,,,,,,,,,,,,,,,,,,,,,
,,60a252f3da4306c3c3de2889,65af5579f3ebe8cc90bc71b7,2024-01-23_08h59.11.962,bars,2023.2.3,Win32,60.24096386,657b66ea316d21385b68909f,,,,,,,,,,,,,,,,,,,,,,,,,,,,,,,,,,,,,98.5479,115.4912,space,16.9178,,,,,,,,,,,,,,,,,,,,,,,,,,,,,,,,,,,,,,,,,,,,,,,,,,,,,,,,,,,,
,,60a252f3da4306c3c3de2889,65af5579f3ebe8cc90bc71b7,2024-01-23_08h59.11.962,bars,2023.2.3,Win32,60.24096386,657b66ea316d21385b68909f,,,,,,,,,,,,,,,,,,,,,,,,,,,,,,,,,,,,,,,,,,115.5228,118.7887,left,3.2408,,118.7891,9,1,119.7879,0,0,0,0,1,9,1,9,2,,,,,,,,,,,,,,,,,,,,,,,,,,,,,,,,,,,,,,,,,
,,60a252f3da4306c3c3de2889,65af5579f3ebe8cc90bc71b7,2024-01-23_08h59.11.962,bars,2023.2.3,Win32,60.24096386,657b66ea316d21385b68909f,,,,,,,,,,,,,,,,,,,,,,,,,,,,,,,,,,,,,,,,,,119.7887,120.7208,left,0.9235,,120.7208,10,1,121.7201,0,1,1,1,1,10,0,10,1,,,,,,,,,,,,,,,,,,,,,,,,,,,,,,,,,,,,,,,,,
,,60a252f3da4306c3c3de2889,65af5579f3ebe8cc90bc71b7,2024-01-23_08h59.11.962,bars,2023.2.3,Win32,60.24096386,657b66ea316d21385b68909f,,,,,,,,,,,,,,,,,,,,,,,,,,,,,,,,,,,,,,,,,,121.7207,122.3701,left,0.6319,,122.3702,10,1,123.3695,0,2,2,2,1,10,2,10,2,,,,,,,,,,,,,,,,,,,,,,,,,,,,,,,,,,,,,,,,,
,,60a252f3da4306c3c3de2889,65af5579f3ebe8cc90bc71b7,2024-01-23_08h59.11.962,bars,2023.2.3,Win32,60.24096386,657b66ea316d21385b68909f,,,,,,,,,,,,,,,,,,,,,,,,,,,,,,,,,,,,,,,,,,123.3701,124.4022,left,1.0223,,124.4022,7,1,125.4018,0,3,3,3,1,8,4,7,3,,,,,,,,,,,,,,,,,,,,,,,,,,,,,,,,,,,,,,,,,
,,60a252f3da4306c3c3de2889,65af5579f3ebe8cc90bc71b7,2024-01-23_08h59.11.962,bars,2023.2.3,Win32,60.24096386,657b66ea316d21385b68909f,,,,,,,,,,,,,,,,,,,,,,,,,,,,,,,,,,,,,,,,,,125.4024,125.8022,right,0.3826,,125.8023,1,2,126.8012,0,4,4,4,1,6,2,5,1,,,,,,,,,,,,,,,,,,,,,,,,,,,,,,,,,,,,,,,,,
,,60a252f3da4306c3c3de2889,65af5579f3ebe8cc90bc71b7,2024-01-23_08h59.11.962,bars,2023.2.3,Win32,60.24096386,657b66ea316d21385b68909f,,,,,,,,,,,,,,,,,,,,,,,,,,,,,,,,,,,,,,,,,,126.8018,127.018,left,0.2007,,127.0181,4,1,128.0173,0,5,5,5,1,4,4,4,4,,,,,,,,,,,,,,,,,,,,,,,,,,,,,,,,,,,,,,,,,
,,60a252f3da4306c3c3de2889,65af5579f3ebe8cc90bc71b7,2024-01-23_08h59.11.962,bars,2023.2.3,Win32,60.24096386,657b66ea316d21385b68909f,,,,,,,,,,,,,,,,,,,,,,,,,,,,,,,,,,,,,,,,,,128.0179,129.4503,left,1.4148,,129.4503,1,1,130.4497,0,6,6,6,1,2,2,1,2,,,,,,,,,,,,,,,,,,,,,,,,,,,,,,,,,,,,,,,,,
,,60a252f3da4306c3c3de2889,65af5579f3ebe8cc90bc71b7,2024-01-23_08h59.11.962,bars,2023.2.3,Win32,60.24096386,657b66ea316d21385b68909f,,,,,,,,,,,,,,,,,,,,,,,,,,,,,,,,,,,,,,,,,,130.4502,130.7163,right,0.2554,,130.7163,1,2,131.7158,0,7,7,7,1,0,0,0,1,,,,,,,,,,,,,,,,,,,,,,,,,,,,,,,,,,,,,,,,,
,,60a252f3da4306c3c3de2889,65af5579f3ebe8cc90bc71b7,2024-01-23_08h59.11.962,bars,2023.2.3,Win32,60.24096386,657b66ea316d21385b68909f,,,,,,,,,,,,,,,,,,,,,,,,,,,,,,,,,,,,,,,,,,131.7164,131.7492,right,0.0155,,131.7493,0,2,132.7484,0,8,8,8,1,0,2,1,0,,,,,,,,,,,,,,,,,,,,,,,,,,,,,,,,,,,,,,,,,
,,60a252f3da4306c3c3de2889,65af5579f3ebe8cc90bc71b7,2024-01-23_08h59.11.962,bars,2023.2.3,Win32,60.24096386,657b66ea316d21385b68909f,,,,,,,,,,,,,,,,,,,,,,,,,,,,,,,,,,,,,,,,,,132.7488,133.2485,right,0.4857,,133.2485,3,2,134.2479,0,9,9,9,1,2,4,2,3,,,,,,,,,,,,,,,,,,,,,,,,,,,,,,,,,,,,,,,,,
,,60a252f3da4306c3c3de2889,65af5579f3ebe8cc90bc71b7,2024-01-23_08h59.11.962,bars,2023.2.3,Win32,60.24096386,657b66ea316d21385b68909f,,,,,,,,,,,,,,,,,,,,,,,,,,,,,,,,,,,,,,,,,,134.2484,134.5483,right,0.282,,134.5483,3,2,135.5473,0,10,10,10,1,0,2,0,3,,,,,,,,,,,,,,,,,,,,,,,,,,,,,,,,,,,,,,,,,
,,60a252f3da4306c3c3de2889,65af5579f3ebe8cc90bc71b7,2024-01-23_08h59.11.962,bars,2023.2.3,Win32,60.24096386,657b66ea316d21385b68909f,,,,,,,,,,,,,,,,,,,,,,,,,,,,,,,,,,,,,,,,,,135.5478,136.0311,left,0.4651,,136.0311,0,1,137.03,0,11,11,11,1,0,4,0,3,,,,,,,,,,,,,,,,,,,,,,,,,,,,,,,,,,,,,,,,,
,,60a252f3da4306c3c3de2889,65af5579f3ebe8cc90bc71b7,2024-01-23_08h59.11.962,bars,2023.2.3,Win32,60.24096386,657b66ea316d21385b68909f,,,,,,,,,,,,,,,,,,,,,,,,,,,,,,,,,,,,,,,,,,137.0305,137.2637,right,0.2157,,137.2638,6,2,138.2629,0,12,12,12,1,2,6,1,6,,,,,,,,,,,,,,,,,,,,,,,,,,,,,,,,,,,,,,,,,
,,60a252f3da4306c3c3de2889,65af5579f3ebe8cc90bc71b7,2024-01-23_08h59.11.962,bars,2023.2.3,Win32,60.24096386,657b66ea316d21385b68909f,,,,,,,,,,,,,,,,,,,,,,,,,,,,,,,,,,,,,,,,,,138.2634,138.5796,right,0.3058,,138.5796,3,2,139.5788,0,13,13,13,1,0,4,1,3,,,,,,,,,,,,,,,,,,,,,,,,,,,,,,,,,,,,,,,,,
,,60a252f3da4306c3c3de2889,65af5579f3ebe8cc90bc71b7,2024-01-23_08h59.11.962,bars,2023.2.3,Win32,60.24096386,657b66ea316d21385b68909f,,,,,,,,,,,,,,,,,,,,,,,,,,,,,,,,,,,,,,,,,,139.5792,140.0127,right,0.4208,,140.0128,7,2,141.0114,0,14,14,14,1,2,6,2,7,,,,,,,,,,,,,,,,,,,,,,,,,,,,,,,,,,,,,,,,,
,,60a252f3da4306c3c3de2889,65af5579f3ebe8cc90bc71b7,2024-01-23_08h59.11.962,bars,2023.2.3,Win32,60.24096386,657b66ea316d21385b68909f,,,,,,,,,,,,,,,,,,,,,,,,,,,,,,,,,,,,,,,,,,141.0118,141.4119,right,0.3831,,141.4119,9,2,142.4107,0,15,15,15,1,4,8,3,9,,,,,,,,,,,,,,,,,,,,,,,,,,,,,,,,,,,,,,,,,
,,60a252f3da4306c3c3de2889,65af5579f3ebe8cc90bc71b7,2024-01-23_08h59.11.962,bars,2023.2.3,Win32,60.24096386,657b66ea316d21385b68909f,,,,,,,,,,,,,,,,,,,,,,,,,,,,,,,,,,,,,,,,,,142.4109,142.6114,right,0.1836,,142.6116,7,2,143.6105,0,16,16,16,1,6,6,7,7,,,,,,,,,,,,,,,,,,,,,,,,,,,,,,,,,,,,,,,,,
,,60a252f3da4306c3c3de2889,65af5579f3ebe8cc90bc71b7,2024-01-23_08h59.11.962,bars,2023.2.3,Win32,60.24096386,657b66ea316d21385b68909f,,,,,,,,,,,,,,,,,,,,,,,,,,,,,,,,,,,,,,,,,,143.611,144.544,right,0.9159,,144.544,5,2,145.5431,0,17,17,17,1,8,4,9,5,,,,,,,,,,,,,,,,,,,,,,,,,,,,,,,,,,,,,,,,,
,,60a252f3da4306c3c3de2889,65af5579f3ebe8cc90bc71b7,2024-01-23_08h59.11.962,bars,2023.2.3,Win32,60.24096386,657b66ea316d21385b68909f,,,,,,,,,,,,,,,,,,,,,,,,,,,,,,,,,,,,,,,,,,145.5436,146.509,right,0.949,,146.509,1,2,147.5087,0,18,18,18,1,6,2,5,1,,,,,,,,,,,,,,,,,,,,,,,,,,,,,,,,,,,,,,,,,
,,60a252f3da4306c3c3de2889,65af5579f3ebe8cc90bc71b7,2024-01-23_08h59.11.962,bars,2023.2.3,Win32,60.24096386,657b66ea316d21385b68909f,,,,,,,,,,,,,,,,,,,,,,,,,,,,,,,,,,,,,,,,,,147.5091,147.792,left,0.2709,,147.792,7,1,148.7913,0,19,19,19,1,8,0,7,0,,,,,,,,,,,,,,,,,,,,,,,,,,,,,,,,,,,,,,,,,
,,60a252f3da4306c3c3de2889,65af5579f3ebe8cc90bc71b7,2024-01-23_08h59.11.962,bars,2023.2.3,Win32,60.24096386,657b66ea316d21385b68909f,,,,,,,,,,,,,,,,,,,,,,,,,,,,,,,,,,,,,,,,,,,,,,,,,,,,,,,,,,,,148.7925,158.1212,space,9.3025,,,,,,,,,,,,,,,,,,,,,,,,,,,,,,,,,,,,,
,,60a252f3da4306c3c3de2889,65af5579f3ebe8cc90bc71b7,2024-01-23_08h59.11.962,bars,2023.2.3,Win32,60.24096386,657b66ea316d21385b68909f,,,,,,,,,,,159.2299,160.2197,,,160.7203,160.9693,,159,-21,,,,,,,,,,,,,,,,bars/038.png,bars/mask000.png,,,,,,,,,,,,0,1,,,,,,,2,7,0,6,,,,,,158.1405,159.2211,space,1.0643,,160.2202,160.7202,160.9698,165.352,space,4.3509,,165.3526,6,89,166.3507,166.3511,176.4311,space,10.0557,,0,0,0,0,1,165,70,,,,,,,,
,,60a252f3da4306c3c3de2889,65af5579f3ebe8cc90bc71b7,2024-01-23_08h59.11.962,bars,2023.2.3,Win32,60.24096386,657b66ea316d21385b68909f,,,,,,,,,,,176.459,177.4454,,,177.9452,178.1951,,20,200,,,,,,,,,,,,,,,,bars/049.png,bars/mask005.png,,,,,,,,,,,,0,1,,,,,,,0,9,1,10,,,,,,,,,,,177.4454,177.9451,178.1952,181.5267,space,3.3146,,181.5268,40,85,182.5268,182.5268,190.0904,space,7.5174,,0,1,1,1,1,160,115,,,,,,,,
,,60a252f3da4306c3c3de2889,65af5579f3ebe8cc90bc71b7,2024-01-23_08h59.11.962,bars,2023.2.3,Win32,60.24096386,657b66ea316d21385b68909f,,,,,,,,,,,190.116,191.1064,,,191.606,191.8559,,21,201,,,,,,,,,,,,,,,,bars/026.png,bars/mask009.png,,,,,,,,,,,,1,1,,,,,,,0,7,1,7,,,,,,,,,,,191.1065,191.606,191.8559,196.6367,space,4.7656,,196.6368,14,64,197.6364,197.6365,199.6356,space,1.9564,,0,2,2,2,1,35,85,,,,,,,,
,,60a252f3da4306c3c3de2889,65af5579f3ebe8cc90bc71b7,2024-01-23_08h59.11.962,bars,2023.2.3,Win32,60.24096386,657b66ea316d21385b68909f,,,,,,,,,,,199.6362,200.6352,,,201.1348,201.3847,,5,5,,,,,,,,,,,,,,,,bars/041.png,bars/mask009.png,,,,,,,,,,,,1,1,,,,,,,2,9,1,9,,,,,,,,,,,200.6352,201.1347,201.3847,204.0839,space,2.6834,,204.084,15,80,205.0831,205.0832,206.616,space,1.4928,,0,3,3,3,1,20,85,,,,,,,,
,,60a252f3da4306c3c3de2889,65af5579f3ebe8cc90bc71b7,2024-01-23_08h59.11.962,bars,2023.2.3,Win32,60.24096386,657b66ea316d21385b68909f,,,,,,,,,,,206.6166,207.6154,,,208.1152,208.3652,,63,63,,,,,,,,,,,,,,,,bars/024.png,bars/mask000.png,,,,,,,,,,,,0,1,,,,,,,4,10,4,10,,,,,,,,,,,207.6154,208.1151,208.3652,213.3131,space,4.9301,,213.3131,57,73,214.3124,214.3124,215.4292,space,1.0769,,0,4,4,4,1,120,170,,,,,,,,
,,60a252f3da4306c3c3de2889,65af5579f3ebe8cc90bc71b7,2024-01-23_08h59.11.962,bars,2023.2.3,Win32,60.24096386,657b66ea316d21385b68909f,,,,,,,,,,,215.4303,216.428,,,216.9282,217.1778,,48,48,,,,,,,,,,,,,,,,bars/028.png,bars/mask003.png,,,,,,,,,,,,0,1,,,,,,,2,10,0,10,,,,,,,,,,,216.4281,216.9282,217.1779,219.3604,space,2.1554,,219.3605,3,72,220.3597,220.3599,222.709,space,2.3259,,0,5,5,5,1,45,120,,,,,,,,
,,60a252f3da4306c3c3de2889,65af5579f3ebe8cc90bc71b7,2024-01-23_08h59.11.962,bars,2023.2.3,Win32,60.24096386,657b66ea316d21385b68909f,,,,,,,,,,,222.738,223.7248,,,224.2247,224.4746,,47,47,,,,,,,,,,,,,,,,bars/035.png,bars/mask007.png,,,,,,,,,,,,5,2,,,,,,,4,10,5,9,,,,,,,,,,,223.7248,224.2246,224.4746,226.807,space,2.319,,226.8071,52,13,227.8065,227.8065,229.2226,space,1.3562,,0,6,6,6,1,175,60,,,,,,,,
,,60a252f3da4306c3c3de2889,65af5579f3ebe8cc90bc71b7,2024-01-23_08h59.11.962,bars,2023.2.3,Win32,60.24096386,657b66ea316d21385b68909f,,,,,,,,,,,229.2235,230.2219,,,230.7222,230.9717,,89,89,,,,,,,,,,,,,,,,bars/038.png,bars/mask006.png,,,,,,,,,,,,3,2,,,,,,,2,8,2,8,,,,,,,,,,,230.222,230.7221,230.9718,234.3202,space,3.3366,,234.3202,76,19,235.3196,235.3197,236.1695,space,0.822,,0,7,7,7,1,165,70,,,,,,,,
,,60a252f3da4306c3c3de2889,65af5579f3ebe8cc90bc71b7,2024-01-23_08h59.11.962,bars,2023.2.3,Win32,60.24096386,657b66ea316d21385b68909f,,,,,,,,,,,236.1701,237.1689,,,237.6686,237.9189,,47,47,,,,,,,,,,,,,,,,bars/029.png,bars/mask009.png,,,,,,,,,,,,9,2,,,,,,,0,10,0,10,,,,,,,,,,,237.1689,237.6686,237.9189,241.0839,space,3.1575,,241.084,43,2,242.0836,242.0837,242.8999,space,0.769,,0,8,8,8,1,90,45,,,,,,,,
,,60a252f3da4306c3c3de2889,65af5579f3ebe8cc90bc71b7,2024-01-23_08h59.11.962,bars,2023.2.3,Win32,60.24096386,657b66ea316d21385b68909f,,,,,,,,,,,242.9007,243.8991,,,244.3989,244.6489,,158,158,,,,,,,,,,,,,,,,bars/016.png,bars/mask005.png,,,,,,,,,,,,6,2,,,,,,,2,8,2,8,,,,,,,,,,,243.8992,244.3989,244.6489,246.6315,space,1.9663,,246.6316,62,7,247.6306,247.6307,248.5304,space,0.8738,,0,9,9,9,1,40,165,,,,,,,,
,,60a252f3da4306c3c3de2889,65af5579f3ebe8cc90bc71b7,2024-01-23_08h59.11.962,bars,2023.2.3,Win32,60.24096386,657b66ea316d21385b68909f,,,,,,,,,,,248.5308,249.5299,,,250.0298,250.2796,,48,48,,,,,,,,,,,,,,,,bars/035.png,bars/mask003.png,,,,,,,,,,,,6,2,,,,,,,0,10,0,10,,,,,,,,,,,249.5299,250.0298,250.2797,252.7456,space,2.4563,,252.7456,53,12,253.7448,253.7448,254.3284,space,0.5473,,0,10,10,10,1,175,60,,,,,,,,
,,60a252f3da4306c3c3de2889,65af5579f3ebe8cc90bc71b7,2024-01-23_08h59.11.962,bars,2023.2.3,Win32,60.24096386,657b66ea316d21385b68909f,,,,,,,,,,,254.329,255.3275,,,255.8279,256.0772,,109,109,,,,,,,,,,,,,,,,bars/006.png,bars/mask002.png,,,,,,,,,,,,6,2,,,,,,,0,8,1,8,,,,,,,,,,,255.3275,255.8279,256.0773,258.8927,space,2.7993,,258.8928,74,9,259.8923,259.8924,260.3591,space,0.4253,,0,11,11,11,1,35,100,,,,,,,,
,,60a252f3da4306c3c3de2889,65af5579f3ebe8cc90bc71b7,2024-01-23_08h59.11.962,bars,2023.2.3,Win32,60.24096386,657b66ea316d21385b68909f,,,,,,,,,,,260.3596,261.3584,,,261.8581,262.1081,,51,51,,,,,,,,,,,,,,,,bars/010.png,bars/mask001.png,,,,,,,,,,,,4,2,,,,,,,0,6,1,5,,,,,,,,,,,261.3585,261.8581,262.1082,263.5244,space,1.4102,,263.5245,66,4,264.5232,264.5232,264.8568,space,0.3142,,0,12,12,12,1,165,55,,,,,,,,
,,60a252f3da4306c3c3de2889,65af5579f3ebe8cc90bc71b7,2024-01-23_08h59.11.962,bars,2023.2.3,Win32,60.24096386,657b66ea316d21385b68909f,,,,,,,,,,,264.8575,265.856,,,266.3559,266.6058,,119,119,,,,,,,,,,,,,,,,bars/009.png,bars/mask005.png,,,,,,,,,,,,1,2,,,,,,,2,4,3,2,,,,,,,,,,,265.8561,266.3559,266.6059,268.3049,space,1.6821,,268.305,76,14,269.3045,269.3045,270.1212,space,0.7762,,0,13,13,13,1,15,105,,,,,,,,
,,60a252f3da4306c3c3de2889,65af5579f3ebe8cc90bc71b7,2024-01-23_08h59.11.962,bars,2023.2.3,Win32,60.24096386,657b66ea316d21385b68909f,,,,,,,,,,,270.1221,271.1207,,,271.6205,271.8701,,102,102,,,,,,,,,,,,,,,,bars/026.png,bars/mask000.png,,,,,,,,,,,,0,2,,,,,,,0,2,0,1,,,,,,,,,,,271.1208,271.6205,271.8702,273.8524,space,1.9727,,273.8524,67,17,274.8523,274.8524,275.552,space,0.6533,,0,14,14,14,1,35,85,,,,,,,,
,,60a252f3da4306c3c3de2889,65af5579f3ebe8cc90bc71b7,2024-01-23_08h59.11.962,bars,2023.2.3,Win32,60.24096386,657b66ea316d21385b68909f,,,,,,,,,,,275.5526,276.5517,,,277.0513,277.3015,,154,-26,,,,,,,,,,,,,,,,bars/016.png,bars/mask006.png,,,,,,,,,,,,1,2,,,,,,,2,0,2,1,,,,,,,,,,,276.5517,277.0512,277.3017,280.1994,space,2.8919,,280.1994,66,11,281.1992,281.1992,281.8491,space,0.6154,,0,15,15,15,1,40,165,,,,,,,,
,,60a252f3da4306c3c3de2889,65af5579f3ebe8cc90bc71b7,2024-01-23_08h59.11.962,bars,2023.2.3,Win32,60.24096386,657b66ea316d21385b68909f,,,,,,,,,,,281.8497,282.8485,,,283.3482,283.598,,4,184,,,,,,,,,,,,,,,,bars/003.png,bars/mask001.png,,,,,,,,,,,,0,1,,,,,,,0,2,0,3,,,,,,,,,,,282.8486,283.3481,283.598,285.8644,space,2.2525,,285.8645,21,44,286.8635,286.8636,287.8136,space,0.9004,,0,16,16,16,1,25,140,,,,,,,,
,,60a252f3da4306c3c3de2889,65af5579f3ebe8cc90bc71b7,2024-01-23_08h59.11.962,bars,2023.2.3,Win32,60.24096386,657b66ea316d21385b68909f,,,,,,,,,,,287.8144,288.8129,,,289.3125,289.5625,,6,6,,,,,,,,,,,,,,,,bars/026.png,bars/mask003.png,,,,,,,,,,,,0,1,,,,,,,2,0,2,0,,,,,,,,,,,288.813,289.3124,289.5626,292.5278,space,2.9505,,292.5278,29,79,293.5269,293.5269,294.2268,space,0.6722,,0,17,17,17,1,35,85,,,,,,,,
,,60a252f3da4306c3c3de2889,65af5579f3ebe8cc90bc71b7,2024-01-23_08h59.11.962,bars,2023.2.3,Win32,60.24096386,657b66ea316d21385b68909f,,,,,,,,,,,294.2272,295.2262,,,295.7261,295.9759,,57,57,,,,,,,,,,,,,,,,bars/044.png,bars/mask001.png,,,,,,,,,,,,2,1,,,,,,,4,2,5,1,,,,,,,,,,,295.2262,295.7261,295.9759,297.6425,space,1.658,,297.6425,18,82,298.6417,298.6418,299.375,space,0.712,,0,18,18,18,1,75,155,,,,,,,,
,,60a252f3da4306c3c3de2889,65af5579f3ebe8cc90bc71b7,2024-01-23_08h59.11.962,bars,2023.2.3,Win32,60.24096386,657b66ea316d21385b68909f,,,,,,,,,,,299.3756,300.374,,,300.874,301.1236,,131,131,,,,,,,,,,,,,,,,bars/017.png,bars/mask002.png,,,,,,,,,,,,2,1,,,,,,,2,4,3,5,,,,,,,,,,,300.3741,300.8739,301.1236,303.4397,space,2.303,,303.4397,14,86,304.4391,304.4392,304.8224,space,0.3701,,0,19,19,19,1,145,45,,,,,,,,
,,60a252f3da4306c3c3de2889,65af5579f3ebe8cc90bc71b7,2024-01-23_08h59.11.962,bars,2023.2.3,Win32,60.24096386,657b66ea316d21385b68909f,,,,,,,,,,,304.823,305.8216,,,306.3216,306.5712,,149,149,,,,,,,,,,,,,,,,bars/037.png,bars/mask009.png,,,,,,,,,,,,4,1,,,,,,,4,6,4,8,,,,,,,,,,,305.8216,306.3216,306.5712,308.1372,space,1.5533,,308.1372,1,44,309.1368,309.1368,309.4538,space,0.2867,,0,20,20,20,1,150,105,,,,,,,,
,,60a252f3da4306c3c3de2889,65af5579f3ebe8cc90bc71b7,2024-01-23_08h59.11.962,bars,2023.2.3,Win32,60.24096386,657b66ea316d21385b68909f,,,,,,,,,,,309.4545,310.4528,,,310.953,311.2025,,137,137,,,,,,,,,,,,,,,,bars/032.png,bars/mask009.png,,,,,,,,,,,,2,1,,,,,,,2,4,3,4,,,,,,,,,,,310.4528,310.9529,311.2026,313.5517,space,2.336,,313.5518,12,63,314.551,314.5511,314.8354,space,0.2616,,0,21,21,21,1,125,20,,,,,,,,
,,60a252f3da4306c3c3de2889,65af5579f3ebe8cc90bc71b7,2024-01-23_08h59.11.962,bars,2023.2.3,Win32,60.24096386,657b66ea316d21385b68909f,,,,,,,,,,,314.8363,315.8339,,,316.3337,316.5837,,114,114,,,,,,,,,,,,,,,,bars/025.png,bars/mask002.png,,,,,,,,,,,,2,1,,,,,,,4,2,3,2,,,,,,,,,,,315.834,316.3336,316.5837,319.1329,space,2.5329,,319.1329,9,74,320.1321,320.1321,320.6489,space,0.4696,,0,22,22,22,1,105,40,,,,,,,,
,,60a252f3da4306c3c3de2889,65af5579f3ebe8cc90bc71b7,2024-01-23_08h59.11.962,bars,2023.2.3,Win32,60.24096386,657b66ea316d21385b68909f,,,,,,,,,,,320.6496,321.6482,,,322.1477,322.3974,,133,133,,,,,,,,,,,,,,,,bars/030.png,bars/mask003.png,,,,,,,,,,,,1,1,,,,,,,2,4,1,3,,,,,,,,,,,321.6482,322.1477,322.3974,324.8297,space,2.4209,,324.8298,7,68,325.8295,325.8296,326.5958,space,0.7248,,0,23,23,23,1,140,65,,,,,,,,
,,60a252f3da4306c3c3de2889,65af5579f3ebe8cc90bc71b7,2024-01-23_08h59.11.962,bars,2023.2.3,Win32,60.24096386,657b66ea316d21385b68909f,,,,,,,,,,,326.5964,327.5953,,,328.095,328.3452,,160,-20,,,,,,,,,,,,,,,,bars/016.png,bars/mask003.png,,,,,,,,,,,,3,2,,,,,,,0,2,0,3,,,,,,,,,,,327.5954,328.0949,328.3453,332.2267,space,3.8682,,332.2268,60,5,333.2262,333.2263,334.0757,space,0.8148,,0,24,24,24,1,40,165,,,,,,,,
,,60a252f3da4306c3c3de2889,65af5579f3ebe8cc90bc71b7,2024-01-23_08h59.11.962,bars,2023.2.3,Win32,60.24096386,657b66ea316d21385b68909f,,,,,,,,,,,334.0764,335.0754,,,335.5755,335.8251,,59,59,,,,,,,,,,,,,,,,bars/029.png,bars/mask003.png,,,,,,,,,,,,0,2,,,,,,,2,0,4,0,,,,,,,,,,,335.0755,335.5754,335.8252,338.9569,space,3.115,,338.957,31,14,339.9562,339.9562,340.6063,space,0.6148,,0,25,25,25,1,90,45,,,,,,,,
,,60a252f3da4306c3c3de2889,65af5579f3ebe8cc90bc71b7,2024-01-23_08h59.11.962,bars,2023.2.3,Win32,60.24096386,657b66ea316d21385b68909f,,,,,,,,,,,340.6073,341.6061,,,342.1062,342.3559,,90,90,,,,,,,,,,,,,,,,bars/021.png,bars/mask009.png,,,,,,,,,,,,0,2,,,,,,,0,0,1,1,,,,,,,,,,,341.6062,342.1062,342.3559,344.1378,space,1.7674,,344.1378,65,20,345.1375,345.1376,345.6043,space,0.4195,,0,26,26,26,1,155,70,,,,,,,,
,,60a252f3da4306c3c3de2889,65af5579f3ebe8cc90bc71b7,2024-01-23_08h59.11.962,bars,2023.2.3,Win32,60.24096386,657b66ea316d21385b68909f,,,,,,,,,,,345.6049,346.6036,,,347.1031,347.3534,,2,182,,,,,,,,,,,,,,,,bars/009.png,bars/mask002.png,,,,,,,,,,,,2,1,,,,,,,2,0,3,0,,,,,,,,,,,346.6037,347.1031,347.3534,348.7858,space,1.4201,,348.7858,13,77,349.7858,349.7859,350.1359,space,0.3269,,0,27,27,27,1,15,105,,,,,,,,
,,60a252f3da4306c3c3de2889,65af5579f3ebe8cc90bc71b7,2024-01-23_08h59.11.962,bars,2023.2.3,Win32,60.24096386,657b66ea316d21385b68909f,,,,,,,,,,,350.1365,351.1351,,,351.6348,351.8849,,29,209,,,,,,,,,,,,,,,,bars/003.png,bars/mask004.png,,,,,,,,,,,,0,1,,,,,,,0,2,0,2,,,,,,,,,,,351.1352,351.6348,351.8849,354.9337,space,3.0387,,354.9338,4,69,355.9327,355.9328,356.6994,space,0.7197,,0,28,28,28,1,25,140,,,,,,,,
,,60a252f3da4306c3c3de2889,65af5579f3ebe8cc90bc71b7,2024-01-23_08h59.11.962,bars,2023.2.3,Win32,60.24096386,657b66ea316d21385b68909f,,,,,,,,,,,356.7001,357.6985,,,358.1983,358.4482,,61,61,,,,,,,,,,,,,,,,bars/007.png,bars/mask003.png,,,,,,,,,,,,0,2,,,,,,,0,0,0,0,,,,,,,,,,,357.6985,358.1983,358.4483,361.7468,space,3.2882,,361.7468,66,6,362.7462,362.7462,363.4297,space,0.6452,,0,29,29,29,1,175,55,,,,,,,,
,,60a252f3da4306c3c3de2889,65af5579f3ebe8cc90bc71b7,2024-01-23_08h59.11.962,bars,2023.2.3,Win32,60.24096386,657b66ea316d21385b68909f,,,,,,,,,,,363.4306,364.4291,,,364.9292,365.1787,,60,60,,,,,,,,,,,,,,,,bars/036.png,bars/mask009.png,,,,,,,,,,,,0,2,,,,,,,0,0,1,0,,,,,,,,,,,364.4291,364.9291,365.1788,367.4113,space,2.223,,367.4114,85,40,368.4106,368.4107,369.0939,space,0.6573,,0,30,30,30,1,145,20,,,,,,,,
,,60a252f3da4306c3c3de2889,65af5579f3ebe8cc90bc71b7,2024-01-23_08h59.11.962,bars,2023.2.3,Win32,60.24096386,657b66ea316d21385b68909f,,,,,,,,,,,369.0948,370.093,,,370.5929,370.8426,,100,100,,,,,,,,,,,,,,,,bars/018.png,bars/mask004.png,,,,,,,,,,,,1,2,,,,,,,2,0,2,2,,,,,,,,,,,370.093,370.5928,370.8427,373.4085,space,2.5553,,373.4087,50,10,374.4079,374.4079,374.9079,space,0.4648,,0,31,31,31,1,150,90,,,,,,,,
,,60a252f3da4306c3c3de2889,65af5579f3ebe8cc90bc71b7,2024-01-23_08h59.11.962,bars,2023.2.3,Win32,60.24096386,657b66ea316d21385b68909f,,,,,,,,,,,374.9085,375.9073,,,376.4071,376.6569,,171,-9,,,,,,,,,,,,,,,,bars/033.png,bars/mask000.png,,,,,,,,,,,,0,2,,,,,,,4,2,4,1,,,,,,,,,,,375.9074,376.407,376.657,378.9558,space,2.2914,,378.9559,34,16,379.9553,379.9553,380.4054,space,0.4153,,0,32,32,32,1,25,155,,,,,,,,
,,60a252f3da4306c3c3de2889,65af5579f3ebe8cc90bc71b7,2024-01-23_08h59.11.962,bars,2023.2.3,Win32,60.24096386,657b66ea316d21385b68909f,,,,,,,,,,,380.4059,381.4048,,,381.9045,382.1546,,41,221,,,,,,,,,,,,,,,,bars/035.png,bars/mask003.png,,,,,,,,,,,,1,2,,,,,,,6,4,7,4,,,,,,,,,,,381.4048,381.9044,382.1547,385.6865,space,3.5157,,385.6866,46,19,386.6863,386.6864,387.1861,space,0.4538,,0,33,33,33,1,175,60,,,,,,,,
,,60a252f3da4306c3c3de2889,65af5579f3ebe8cc90bc71b7,2024-01-23_08h59.11.962,bars,2023.2.3,Win32,60.24096386,657b66ea316d21385b68909f,,,,,,,,,,,387.1867,388.1851,,,388.6853,388.935,,143,143,,,,,,,,,,,,,,,,bars/043.png,bars/mask000.png,,,,,,,,,,,,1,2,,,,,,,8,2,8,2,,,,,,,,,,,388.1852,388.6853,388.935,390.9506,space,2.0068,,390.9506,67,13,391.9501,391.9502,392.4832,space,0.4864,,0,34,34,34,1,30,130,,,,,,,,
,,60a252f3da4306c3c3de2889,65af5579f3ebe8cc90bc71b7,2024-01-23_08h59.11.962,bars,2023.2.3,Win32,60.24096386,657b66ea316d21385b68909f,,,,,,,,,,,392.4844,393.4828,,,393.9827,394.2324,,105,105,,,,,,,,,,,,,,,,bars/028.png,bars/mask001.png,,,,,,,,,,,,0,2,,,,,,,10,0,10,0,,,,,,,,,,,393.4829,393.9827,394.2324,397.231,space,2.9903,,397.231,60,15,398.2306,398.2307,398.6139,space,0.3476,,0,35,35,35,1,45,120,,,,,,,,
,,60a252f3da4306c3c3de2889,65af5579f3ebe8cc90bc71b7,2024-01-23_08h59.11.962,bars,2023.2.3,Win32,60.24096386,657b66ea316d21385b68909f,,,,,,,,,,,398.6144,399.6135,,,400.1133,400.3632,,73,73,,,,,,,,,,,,,,,,bars/047.png,bars/mask005.png,,,,,,,,,,,,0,2,,,,,,,8,0,9,0,,,,,,,,,,,399.6135,400.1133,400.3633,403.745,space,3.3658,,403.7451,58,3,404.7447,404.7448,405.1614,space,0.3695,,0,36,36,36,1,15,70,,,,,,,,
,,60a252f3da4306c3c3de2889,65af5579f3ebe8cc90bc71b7,2024-01-23_08h59.11.962,bars,2023.2.3,Win32,60.24096386,657b66ea316d21385b68909f,,,,,,,,,,,405.162,406.1604,,,406.6604,406.9101,,61,61,,,,,,,,,,,,,,,,bars/017.png,bars/mask001.png,,,,,,,,,,,,1,2,,,,,,,10,2,9,3,,,,,,,,,,,406.1605,406.6604,406.9101,409.4095,space,2.4846,,409.4095,84,16,410.4089,410.409,410.7089,space,0.2537,,0,37,37,37,1,145,45,,,,,,,,
,,60a252f3da4306c3c3de2889,65af5579f3ebe8cc90bc71b7,2024-01-23_08h59.11.962,bars,2023.2.3,Win32,60.24096386,657b66ea316d21385b68909f,,,,,,,,,,,410.7096,411.7081,,,412.2078,412.4578,,84,84,,,,,,,,,,,,,,,,bars/002.png,bars/mask003.png,,,,,,,,,,,,0,2,,,,,,,8,0,9,0,,,,,,,,,,,411.7082,412.2078,412.4579,415.1901,space,2.7183,,415.1901,46,1,416.1894,416.1895,416.5061,space,0.2706,,0,38,38,38,1,130,85,,,,,,,,
,,60a252f3da4306c3c3de2889,65af5579f3ebe8cc90bc71b7,2024-01-23_08h59.11.962,bars,2023.2.3,Win32,60.24096386,657b66ea316d21385b68909f,,,,,,,,,,,416.5067,417.5054,,,418.0052,418.255,,151,-29,,,,,,,,,,,,,,,,bars/042.png,bars/mask006.png,,,,,,,,,,,,8,1,,,,,,,10,0,10,0,,,,,,,,,,,417.5054,418.0052,418.2552,421.8705,space,3.5984,,421.8706,6,76,422.87,422.8701,423.6366,space,0.7146,,0,39,39,39,1,145,75,,,,,,,,
,,60a252f3da4306c3c3de2889,65af5579f3ebe8cc90bc71b7,2024-01-23_08h59.11.962,bars,2023.2.3,Win32,60.24096386,657b66ea316d21385b68909f,,,,,,,,,,,423.6371,424.6356,,,425.1357,425.3854,,115,115,,,,,,,,,,,,,,,,bars/015.png,bars/mask005.png,,,,,,,,,,,,8,1,,,,,,,10,0,10,0,,,,,,,,,,,424.6356,425.1357,425.3855,427.5014,space,2.106,,427.5014,5,45,428.5007,428.5007,428.8339,space,0.3121,,0,40,40,40,1,110,160,,,,,,,,
,,60a252f3da4306c3c3de2889,65af5579f3ebe8cc90bc71b7,2024-01-23_08h59.11.962,bars,2023.2.3,Win32,60.24096386,657b66ea316d21385b68909f,,,,,,,,,,,428.8348,429.8333,,,430.3335,430.5834,,155,155,,,,,,,,,,,,,,,,bars/018.png,bars/mask004.png,,,,,,,,,,,,5,1,,,,,,,8,0,6,0,,,,,,,,,,,429.8334,430.3335,430.5834,432.9485,space,2.3531,,432.9487,5,65,433.9485,433.9486,434.3815,space,0.3891,,0,41,41,41,1,150,90,,,,,,,,
,,60a252f3da4306c3c3de2889,65af5579f3ebe8cc90bc71b7,2024-01-23_08h59.11.962,bars,2023.2.3,Win32,60.24096386,657b66ea316d21385b68909f,,,,,,,,,,,434.3823,435.3808,,,435.8807,436.1306,,12,12,,,,,,,,,,,,,,,,bars/023.png,bars/mask005.png,,,,,,,,,,,,7,1,,,,,,,10,2,10,3,,,,,,,,,,,435.3809,435.8807,436.1306,438.963,space,2.8224,,438.9631,8,77,439.9625,439.9626,440.3792,space,0.3716,,0,42,42,42,1,20,115,,,,,,,,
,,60a252f3da4306c3c3de2889,65af5579f3ebe8cc90bc71b7,2024-01-23_08h59.11.962,bars,2023.2.3,Win32,60.24096386,657b66ea316d21385b68909f,,,,,,,,,,,440.3798,441.3785,,,441.8783,442.1282,,35,215,,,,,,,,,,,,,,,,bars/004.png,bars/mask008.png,,,,,,,,,,,,6,1,,,,,,,8,4,9,4,,,,,,,,,,,441.3786,441.8783,442.1283,445.8433,space,3.6988,,445.8434,10,90,446.8425,446.8426,447.2094,space,0.3254,,0,43,43,43,1,25,125,,,,,,,,
,,60a252f3da4306c3c3de2889,65af5579f3ebe8cc90bc71b7,2024-01-23_08h59.11.962,bars,2023.2.3,Win32,60.24096386,657b66ea316d21385b68909f,,,,,,,,,,,447.21,448.2088,,,448.7088,448.9582,,120,120,,,,,,,,,,,,,,,,bars/031.png,bars/mask004.png,,,,,,,,,,,,9,1,,,,,,,10,2,9,1,,,,,,,,,,,448.2089,448.7088,448.9582,451.8404,space,2.8664,,451.8405,0,85,452.8402,452.8403,453.1735,space,0.2868,,0,44,44,44,1,120,35,,,,,,,,
,,60a252f3da4306c3c3de2889,65af5579f3ebe8cc90bc71b7,2024-01-23_08h59.11.962,bars,2023.2.3,Win32,60.24096386,657b66ea316d21385b68909f,,,,,,,,,,,453.1741,454.1726,,,454.6727,454.9222,,141,141,,,,,,,,,,,,,,,,bars/032.png,bars/mask003.png,,,,,,,,,,,,4,1,,,,,,,8,0,8,0,,,,,,,,,,,454.1727,454.6726,454.9223,456.7385,space,1.8021,,456.7386,16,59,457.7377,457.7378,458.1043,space,0.3279,,0,45,45,45,1,125,20,,,,,,,,
,,60a252f3da4306c3c3de2889,65af5579f3ebe8cc90bc71b7,2024-01-23_08h59.11.962,bars,2023.2.3,Win32,60.24096386,657b66ea316d21385b68909f,,,,,,,,,,,458.105,459.1035,,,459.6035,459.8536,,122,122,,,,,,,,,,,,,,,,bars/031.png,bars/mask005.png,,,,,,,,,,,,7,1,,,,,,,6,0,8,1,,,,,,,,,,,459.1035,459.6034,459.8536,464.6179,space,4.7569,,464.618,2,87,465.6175,465.6175,465.9842,space,0.32,,0,46,46,46,1,120,35,,,,,,,,
,,60a252f3da4306c3c3de2889,65af5579f3ebe8cc90bc71b7,2024-01-23_08h59.11.962,bars,2023.2.3,Win32,60.24096386,657b66ea316d21385b68909f,,,,,,,,,,,465.9848,466.9837,,,467.4835,467.7331,,16,16,,,,,,,,,,,,,,,,bars/003.png,bars/mask006.png,,,,,,,,,,,,5,1,,,,,,,8,0,7,0,,,,,,,,,,,466.9838,467.4834,467.7332,470.2655,space,2.5265,,470.2656,9,56,471.2652,471.2652,471.7817,space,0.47,,0,47,47,47,1,25,140,,,,,,,,
,,60a252f3da4306c3c3de2889,65af5579f3ebe8cc90bc71b7,2024-01-23_08h59.11.962,bars,2023.2.3,Win32,60.24096386,657b66ea316d21385b68909f,,,,,,,,,,,471.7824,472.781,,,473.281,473.5306,,120,120,,,,,,,,,,,,,,,,bars/040.png,bars/mask000.png,,,,,,,,,,,,2,1,,,,,,,6,2,6,3,,,,,,,,,,,472.7811,473.281,473.5307,477.2624,space,3.7159,,477.2625,20,65,478.262,478.2621,478.5953,space,0.2898,,0,48,48,48,1,140,5,,,,,,,,
,,60a252f3da4306c3c3de2889,65af5579f3ebe8cc90bc71b7,2024-01-23_08h59.11.962,bars,2023.2.3,Win32,60.24096386,657b66ea316d21385b68909f,,,,,,,,,,,478.5959,479.5949,,,480.0944,480.3442,,38,38,,,,,,,,,,,,,,,,bars/005.png,bars/mask000.png,,,,,,,,,,,,0,1,,,,,,,4,4,4,3,,,,,,,,,,,479.5949,480.0943,480.3442,483.4763,space,3.1216,,483.4764,28,78,484.4758,484.4759,485.1424,space,0.6262,,0,49,49,49,1,10,140,,,,,,,,
,,60a252f3da4306c3c3de2889,65af5579f3ebe8cc90bc71b7,2024-01-23_08h59.11.962,bars,2023.2.3,Win32,60.24096386,657b66ea316d21385b68909f,,,,,,,,,,,,,,,,,,,,,,,,,,,,,,,,,,,,,,,,,,,,,,,,,,,,,,,,,,,,,,,,,,,,,,,,,,,,,,,,,,,,,,,,,,,,,485.1438,545.1329,0,0,0,1,1,sequence_tables/blk019.csv
,,60a252f3da4306c3c3de2889,65af5579f3ebe8cc90bc71b7,2024-01-23_08h59.11.962,bars,2023.2.3,Win32,60.24096386,657b66ea316d21385b68909f,,,,,,,,,,,556.2369,557.2104,,,557.7103,557.96,,47,47,,,,,,,,,,,,,,,,bars/034.png,bars/mask002.png,,,,,,,,,,,,1,2,,,,,,,7,2,8,3,,,,,,545.1512,556.1943,space,11.0284,,557.2104,557.7103,557.9601,559.693,space,1.7231,,559.6931,78,18,560.6923,560.6924,560.7224,,,,0,0,0,0,1,125,65,,,,,,,,
,,60a252f3da4306c3c3de2889,65af5579f3ebe8cc90bc71b7,2024-01-23_08h59.11.962,bars,2023.2.3,Win32,60.24096386,657b66ea316d21385b68909f,,,,,,,,,,,560.723,561.7251,,,562.2247,562.4745,,3,3,,,,,,,,,,,,,,,,bars/033.png,bars/mask008.png,,,,,,,,,,,,2,1,,,,,,,9,4,8,5,,,,,,,,,,,561.7252,562.2247,562.4746,564.8066,space,2.3172,,564.8067,22,28,565.8063,565.8064,565.8346,,,,0,1,1,1,1,25,155,,,,,,,,
,,60a252f3da4306c3c3de2889,65af5579f3ebe8cc90bc71b7,2024-01-23_08h59.11.962,bars,2023.2.3,Win32,60.24096386,657b66ea316d21385b68909f,,,,,,,,,,,565.8351,566.8229,,,567.3223,567.5724,,121,121,,,,,,,,,,,,,,,,bars/032.png,bars/mask009.png,,,,,,,,,,,,5,1,,,,,,,7,6,6,6,,,,,,,,,,,566.8229,567.3222,567.5725,570.8711,space,3.2846,,570.8713,4,79,571.8705,571.8705,571.8971,,,,0,2,2,2,1,125,20,,,,,,,,
,,60a252f3da4306c3c3de2889,65af5579f3ebe8cc90bc71b7,2024-01-23_08h59.11.962,bars,2023.2.3,Win32,60.24096386,657b66ea316d21385b68909f,,,,,,,,,,,571.8976,572.8868,,,573.3866,573.6367,,132,132,,,,,,,,,,,,,,,,bars/030.png,bars/mask004.png,,,,,,,,,,,,4,1,,,,,,,5,8,6,9,,,,,,,,,,,572.8869,573.3866,573.6367,575.3358,space,1.6904,,575.3358,8,67,576.3351,576.3352,576.3644,,,,0,3,3,3,1,140,65,,,,,,,,
,,60a252f3da4306c3c3de2889,65af5579f3ebe8cc90bc71b7,2024-01-23_08h59.11.962,bars,2023.2.3,Win32,60.24096386,657b66ea316d21385b68909f,,,,,,,,,,,576.3649,577.368,,,577.8681,578.1179,,108,108,,,,,,,,,,,,,,,,bars/012.png,bars/mask003.png,,,,,,,,,,,,1,1,,,,,,,3,6,2,6,,,,,,,,,,,577.368,577.868,578.1179,579.7664,space,1.6345,,579.7665,18,87,580.7665,580.7665,580.7936,,,,0,4,4,4,1,90,15,,,,,,,,
,,60a252f3da4306c3c3de2889,65af5579f3ebe8cc90bc71b7,2024-01-23_08h59.11.962,bars,2023.2.3,Win32,60.24096386,657b66ea316d21385b68909f,,,,,,,,,,,580.7941,581.7824,,,582.2826,582.5326,,112,112,,,,,,,,,,,,,,,,bars/015.png,bars/mask007.png,,,,,,,,,,,,4,1,,,,,,,5,4,4,5,,,,,,,,,,,581.7825,582.2825,582.5327,585.4315,space,2.8836,,585.4315,2,48,586.4307,586.4308,586.4577,,,,0,5,5,5,1,110,160,,,,,,,,
,,60a252f3da4306c3c3de2889,65af5579f3ebe8cc90bc71b7,2024-01-23_08h59.11.962,bars,2023.2.3,Win32,60.24096386,657b66ea316d21385b68909f,,,,,,,,,,,586.4581,587.4471,,,587.9472,588.1967,,99,99,,,,,,,,,,,,,,,,bars/012.png,bars/mask003.png,,,,,,,,,,,,2,1,,,,,,,3,2,3,3,,,,,,,,,,,587.4472,587.947,588.1967,590.9285,space,2.7167,,590.9286,9,84,591.9281,591.9281,591.9563,,,,0,6,6,6,1,90,15,,,,,,,,
,,60a252f3da4306c3c3de2889,65af5579f3ebe8cc90bc71b7,2024-01-23_08h59.11.962,bars,2023.2.3,Win32,60.24096386,657b66ea316d21385b68909f,,,,,,,,,,,591.9567,592.961,,,593.4608,593.7106,,69,69,,,,,,,,,,,,,,,,bars/014.png,bars/mask006.png,,,,,,,,,,,,1,1,,,,,,,1,4,2,3,,,,,,,,,,,592.961,593.4607,593.7107,596.4432,space,2.716,,596.4432,11,69,597.4424,597.4424,597.469,,,,0,7,7,7,1,80,0,,,,,,,,
,,60a252f3da4306c3c3de2889,65af5579f3ebe8cc90bc71b7,2024-01-23_08h59.11.962,bars,2023.2.3,Win32,60.24096386,657b66ea316d21385b68909f,,,,,,,,,,,597.4695,598.4593,,,598.9588,599.2086,,2,182,,,,,,,,,,,,,,,,bars/035.png,bars/mask000.png,,,,,,,,,,,,0,1,,,,,,,0,2,0,3,,,,,,,,,,,598.4594,598.9587,599.2086,601.8737,space,2.6498,,601.8738,7,58,602.8731,602.8732,602.9028,,,,0,8,8,8,1,175,60,,,,,,,,
,,60a252f3da4306c3c3de2889,65af5579f3ebe8cc90bc71b7,2024-01-23_08h59.11.962,bars,2023.2.3,Win32,60.24096386,657b66ea316d21385b68909f,,,,,,,,,,,602.9032,603.9064,,,604.4059,604.6557,,93,93,,,,,,,,,,,,,,,,bars/021.png,bars/mask000.png,,,,,,,,,,,,1,2,,,,,,,0,4,0,5,,,,,,,,,,,603.9065,604.4059,604.6557,607.5548,space,2.886,,607.5548,62,23,608.5541,608.5541,608.5829,,,,0,9,9,9,1,155,70,,,,,,,,
,,60a252f3da4306c3c3de2889,65af5579f3ebe8cc90bc71b7,2024-01-23_08h59.11.962,bars,2023.2.3,Win32,60.24096386,657b66ea316d21385b68909f,,,,,,,,,,,608.5833,609.587,,,610.087,610.337,,104,104,,,,,,,,,,,,,,,,bars/001.png,bars/mask001.png,,,,,,,,,,,,2,2,,,,,,,0,6,0,6,,,,,,,,,,,609.5871,610.087,610.337,613.3188,space,2.9636,,613.3189,26,19,614.3184,614.3184,614.3451,,,,0,10,10,10,1,130,85,,,,,,,,
,,60a252f3da4306c3c3de2889,65af5579f3ebe8cc90bc71b7,2024-01-23_08h59.11.962,bars,2023.2.3,Win32,60.24096386,657b66ea316d21385b68909f,,,,,,,,,,,614.3455,615.3347,,,615.8345,616.0844,,90,90,,,,,,,,,,,,,,,,bars/018.png,bars/mask006.png,,,,,,,,,,,,8,2,,,,,,,2,8,2,8,,,,,,,,,,,615.3347,615.8345,616.0844,619.4502,space,3.3592,,619.4503,60,0,620.4485,620.4485,620.4657,,,,0,11,11,11,1,150,90,,,,,,,,
,,60a252f3da4306c3c3de2889,65af5579f3ebe8cc90bc71b7,2024-01-23_08h59.11.962,bars,2023.2.3,Win32,60.24096386,657b66ea316d21385b68909f,,,,,,,,,,,620.466,621.4653,,,621.9649,622.2145,,174,-6,,,,,,,,,,,,,,,,bars/033.png,bars/mask003.png,,,,,,,,,,,,2,2,,,,,,,4,6,5,6,,,,,,,,,,,621.4653,621.9648,622.2146,624.6804,space,2.4527,,624.6805,31,19,625.6798,625.6799,625.7073,,,,0,12,12,12,1,25,155,,,,,,,,
,,60a252f3da4306c3c3de2889,65af5579f3ebe8cc90bc71b7,2024-01-23_08h59.11.962,bars,2023.2.3,Win32,60.24096386,657b66ea316d21385b68909f,,,,,,,,,,,625.7077,626.6959,,,627.1958,627.4458,,135,135,,,,,,,,,,,,,,,,bars/015.png,bars/mask009.png,,,,,,,,,,,,1,2,,,,,,,2,8,1,8,,,,,,,,,,,626.6959,627.1958,627.4459,630.3612,space,2.8995,,630.3613,25,25,631.3608,631.3609,631.3881,,,,0,13,13,13,1,110,160,,,,,,,,
,,60a252f3da4306c3c3de2889,65af5579f3ebe8cc90bc71b7,2024-01-23_08h59.11.962,bars,2023.2.3,Win32,60.24096386,657b66ea316d21385b68909f,,,,,,,,,,,631.3885,632.3771,,,632.8765,633.1265,,102,102,,,,,,,,,,,,,,,,bars/006.png,bars/mask005.png,,,,,,,,,,,,9,2,,,,,,,4,10,3,10,,,,,,,,,,,632.3771,632.8765,633.1266,635.0092,space,1.8664,,635.0092,67,2,636.0087,636.0088,636.0098,,,,0,14,14,14,1,35,100,,,,,,,,
,,60a252f3da4306c3c3de2889,65af5579f3ebe8cc90bc71b7,2024-01-23_08h59.11.962,bars,2023.2.3,Win32,60.24096386,657b66ea316d21385b68909f,,,,,,,,,,,636.0103,637.0083,,,637.5081,637.7577,,158,158,,,,,,,,,,,,,,,,bars/024.png,bars/mask009.png,,,,,,,,,,,,5,2,,,,,,,2,10,3,9,,,,,,,,,,,637.0084,637.5081,637.7577,640.1234,space,2.355,,640.1235,38,12,641.1229,641.123,641.1497,,,,0,15,15,15,1,120,170,,,,,,,,
,,60a252f3da4306c3c3de2889,65af5579f3ebe8cc90bc71b7,2024-01-23_08h59.11.962,bars,2023.2.3,Win32,60.24096386,657b66ea316d21385b68909f,,,,,,,,,,,641.1502,642.1394,,,642.6394,642.8892,,87,87,,,,,,,,,,,,,,,,bars/026.png,bars/mask002.png,,,,,,,,,,,,7,2,,,,,,,0,10,0,8,,,,,,,,,,,642.1394,642.6394,642.8893,646.454,space,3.5564,,646.454,52,2,647.4534,647.4534,647.4804,,,,0,16,16,16,1,35,85,,,,,,,,
,,60a252f3da4306c3c3de2889,65af5579f3ebe8cc90bc71b7,2024-01-23_08h59.11.962,bars,2023.2.3,Win32,60.24096386,657b66ea316d21385b68909f,,,,,,,,,,,647.4808,648.4699,,,648.9698,649.2198,,4,184,,,,,,,,,,,,,,,,bars/040.png,bars/mask004.png,,,,,,,,,,,,10,2,,,,,,,2,8,2,10,,,,,,,,,,,648.4701,648.9697,649.2198,651.0686,space,1.8417,,651.0687,44,1,652.0684,652.0684,652.0697,,,,0,17,17,17,1,140,5,,,,,,,,
,,60a252f3da4306c3c3de2889,65af5579f3ebe8cc90bc71b7,2024-01-23_08h59.11.962,bars,2023.2.3,Win32,60.24096386,657b66ea316d21385b68909f,,,,,,,,,,,652.0702,653.0677,,,653.5677,653.8177,,160,-20,,,,,,,,,,,,,,,,bars/016.png,bars/mask004.png,,,,,,,,,,,,8,2,,,,,,,4,10,5,10,,,,,,,,,,,653.0677,653.5677,653.8177,656.2331,space,2.4044,,656.2331,60,5,657.2325,657.2326,657.2596,,,,0,18,18,18,1,40,165,,,,,,,,
,,60a252f3da4306c3c3de2889,65af5579f3ebe8cc90bc71b7,2024-01-23_08h59.11.962,bars,2023.2.3,Win32,60.24096386,657b66ea316d21385b68909f,,,,,,,,,,,657.2601,658.2486,,,658.7484,658.9982,,87,87,,,,,,,,,,,,,,,,bars/011.png,bars/mask009.png,,,,,,,,,,,,9,2,,,,,,,6,10,5,10,,,,,,,,,,,658.2487,658.7484,658.9983,660.6977,space,1.6836,,660.6977,73,2,661.6971,661.6971,661.6981,,,,0,19,19,19,1,160,85,,,,,,,,
,,60a252f3da4306c3c3de2889,65af5579f3ebe8cc90bc71b7,2024-01-23_08h59.11.962,bars,2023.2.3,Win32,60.24096386,657b66ea316d21385b68909f,,,,,,,,,,,661.6986,662.6969,,,663.1964,663.4466,,81,81,,,,,,,,,,,,,,,,bars/009.png,bars/mask002.png,,,,,,,,,,,,2,2,,,,,,,8,10,9,10,,,,,,,,,,,662.6969,663.1964,663.4466,667.1278,space,3.6708,,667.1279,66,24,668.1278,668.1279,668.1543,,,,0,20,20,20,1,15,105,,,,,,,,
,,60a252f3da4306c3c3de2889,65af5579f3ebe8cc90bc71b7,2024-01-23_08h59.11.962,bars,2023.2.3,Win32,60.24096386,657b66ea316d21385b68909f,,,,,,,,,,,668.1546,669.1441,,,669.6442,669.894,,151,-29,,,,,,,,,,,,,,,,bars/040.png,bars/mask002.png,,,,,,,,,,,,4,1,,,,,,,6,8,6,10,,,,,,,,,,,669.1441,669.6442,669.894,673.659,space,3.7506,,673.6591,11,34,674.6584,674.6584,674.6868,,,,0,21,21,21,1,140,5,,,,,,,,
,,60a252f3da4306c3c3de2889,65af5579f3ebe8cc90bc71b7,2024-01-23_08h59.11.962,bars,2023.2.3,Win32,60.24096386,657b66ea316d21385b68909f,,,,,,,,,,,674.6873,675.6912,,,676.1906,676.4408,,143,143,,,,,,,,,,,,,,,,bars/011.png,bars/mask001.png,,,,,,,,,,,,3,1,,,,,,,4,6,6,5,,,,,,,,,,,675.6912,676.1906,676.4409,680.1722,space,3.7217,,680.1723,17,58,681.1719,681.172,681.199,,,,0,22,22,22,1,160,85,,,,,,,,
,,60a252f3da4306c3c3de2889,65af5579f3ebe8cc90bc71b7,2024-01-23_08h59.11.962,bars,2023.2.3,Win32,60.24096386,657b66ea316d21385b68909f,,,,,,,,,,,681.1996,682.1882,,,682.6881,682.9376,,144,144,,,,,,,,,,,,,,,,bars/040.png,bars/mask008.png,,,,,,,,,,,,2,1,,,,,,,2,8,2,8,,,,,,,,,,,682.1883,682.6881,682.9376,685.2034,space,2.2497,,685.2035,4,41,686.2028,686.2029,686.204,,,,0,23,23,23,1,140,5,,,,,,,,
,,60a252f3da4306c3c3de2889,65af5579f3ebe8cc90bc71b7,2024-01-23_08h59.11.962,bars,2023.2.3,Win32,60.24096386,657b66ea316d21385b68909f,,,,,,,,,,,686.2044,687.2024,,,687.7025,687.9522,,175,-5,,,,,,,,,,,,,,,,bars/039.png,bars/mask008.png,,,,,,,,,,,,4,1,,,,,,,4,10,4,10,,,,,,,,,,,687.2025,687.7024,687.9522,690.9679,space,2.9992,,690.9679,0,70,691.9669,691.967,691.9939,,,,0,24,24,24,1,175,105,,,,,,,,
,,60a252f3da4306c3c3de2889,65af5579f3ebe8cc90bc71b7,2024-01-23_08h59.11.962,bars,2023.2.3,Win32,60.24096386,657b66ea316d21385b68909f,,,,,,,,,,,691.9945,692.9831,,,693.4834,693.7332,,7,7,,,,,,,,,,,,,,,,bars/035.png,bars/mask003.png,,,,,,,,,,,,2,1,,,,,,,2,8,3,7,,,,,,,,,,,692.9831,693.4834,693.7333,695.2325,space,1.4831,,695.2326,12,53,696.232,696.232,696.2335,,,,0,25,25,25,1,175,60,,,,,,,,
,,60a252f3da4306c3c3de2889,65af5579f3ebe8cc90bc71b7,2024-01-23_08h59.11.962,bars,2023.2.3,Win32,60.24096386,657b66ea316d21385b68909f,,,,,,,,,,,696.2339,697.2313,,,697.7311,697.9814,,51,51,,,,,,,,,,,,,,,,bars/026.png,bars/mask000.png,,,,,,,,,,,,0,1,,,,,,,0,10,0,10,,,,,,,,,,,697.2314,697.7311,697.9815,700.4302,space,2.433,,700.4302,16,34,701.4299,701.4299,701.4576,,,,0,26,26,26,1,35,85,,,,,,,,
,,60a252f3da4306c3c3de2889,65af5579f3ebe8cc90bc71b7,2024-01-23_08h59.11.962,bars,2023.2.3,Win32,60.24096386,657b66ea316d21385b68909f,,,,,,,,,,,701.4581,702.4459,,,702.9458,703.1953,,122,122,,,,,,,,,,,,,,,,bars/020.png,bars/mask007.png,,,,,,,,,,,,2,1,,,,,,,2,10,2,10,,,,,,,,,,,702.4459,702.9458,703.1954,706.0277,space,2.8165,,706.0277,7,48,707.0272,707.0273,707.0544,,,,0,27,27,27,1,115,170,,,,,,,,
,,60a252f3da4306c3c3de2889,65af5579f3ebe8cc90bc71b7,2024-01-23_08h59.11.962,bars,2023.2.3,Win32,60.24096386,657b66ea316d21385b68909f,,,,,,,,,,,707.0548,708.0431,,,708.5433,708.7931,,0,0,,,,,,,,,,,,,,,,bars/009.png,bars/mask009.png,,,,,,,,,,,,1,1,,,,,,,0,10,1,10,,,,,,,,,,,708.0432,708.5433,708.7932,710.5592,space,1.7497,,710.5592,15,75,711.5585,711.5586,711.5854,,,,0,28,28,28,1,15,105,,,,,,,,
,,60a252f3da4306c3c3de2889,65af5579f3ebe8cc90bc71b7,2024-01-23_08h59.11.962,bars,2023.2.3,Win32,60.24096386,657b66ea316d21385b68909f,,,,,,,,,,,711.5858,712.5749,,,713.0747,713.3244,,19,199,,,,,,,,,,,,,,,,bars/026.png,bars/mask002.png,,,,,,,,,,,,1,1,,,,,,,0,8,2,8,,,,,,,,,,,712.575,713.0747,713.3244,715.1572,space,1.8224,,715.1574,16,66,716.1566,716.1566,716.1578,,,,0,29,29,29,1,35,85,,,,,,,,
,,60a252f3da4306c3c3de2889,65af5579f3ebe8cc90bc71b7,2024-01-23_08h59.11.962,bars,2023.2.3,Win32,60.24096386,657b66ea316d21385b68909f,,,,,,,,,,,716.1583,717.1558,,,717.6561,717.9058,,78,78,,,,,,,,,,,,,,,,bars/042.png,bars/mask000.png,,,,,,,,,,,,9,2,,,,,,,0,10,0,10,,,,,,,,,,,717.1559,717.6561,717.9058,721.2707,space,3.349,,721.2708,67,3,722.2704,722.2704,722.2993,,,,0,30,30,30,1,145,75,,,,,,,,
,,60a252f3da4306c3c3de2889,65af5579f3ebe8cc90bc71b7,2024-01-23_08h59.11.962,bars,2023.2.3,Win32,60.24096386,657b66ea316d21385b68909f,,,,,,,,,,,722.2997,723.303,,,723.8031,724.0529,,69,69,,,,,,,,,,,,,,,,bars/029.png,bars/mask006.png,,,,,,,,,,,,0,1,,,,,,,0,10,0,9,,,,,,,,,,,723.303,723.803,724.0529,726.6853,space,2.6192,,726.6853,21,24,727.6847,727.6848,727.7131,,,,0,31,31,31,1,90,45,,,,,,,,
,,60a252f3da4306c3c3de2889,65af5579f3ebe8cc90bc71b7,2024-01-23_08h59.11.962,bars,2023.2.3,Win32,60.24096386,657b66ea316d21385b68909f,,,,,,,,,,,727.7135,728.7176,,,729.2171,729.4672,,109,289,,,,,,,,,,,,,,,,bars/031.png,bars/mask001.png,,,,,,,,,,,,0,1,,,,,,,0,8,0,8,,,,,,,,,,,728.7176,729.2171,729.4672,733.6989,space,4.218,,733.6989,11,74,734.698,734.6981,734.7254,,,,0,32,32,32,1,120,35,,,,,,,,
,,60a252f3da4306c3c3de2889,65af5579f3ebe8cc90bc71b7,2024-01-23_08h59.11.962,bars,2023.2.3,Win32,60.24096386,657b66ea316d21385b68909f,,,,,,,,,,,734.7259,735.7142,,,736.2141,736.4641,,83,83,,,,,,,,,,,,,,,,bars/030.png,bars/mask004.png,,,,,,,,,,,,2,2,,,,,,,0,6,0,6,,,,,,,,,,,735.7142,736.214,736.4642,739.5463,space,3.0655,,739.5463,57,18,740.5457,740.5457,740.5742,,,,0,33,33,33,1,140,65,,,,,,,,
,,60a252f3da4306c3c3de2889,65af5579f3ebe8cc90bc71b7,2024-01-23_08h59.11.962,bars,2023.2.3,Win32,60.24096386,657b66ea316d21385b68909f,,,,,,,,,,,740.5746,741.5785,,,742.0784,742.3283,,65,65,,,,,,,,,,,,,,,,bars/047.png,bars/mask002.png,,,,,,,,,,,,3,2,,,,,,,0,4,0,3,,,,,,,,,,,741.5786,742.0783,742.3284,743.4948,space,1.1509,,743.4948,50,5,744.4939,744.4939,744.495,,,,0,34,34,34,1,15,70,,,,,,,,
,,60a252f3da4306c3c3de2889,65af5579f3ebe8cc90bc71b7,2024-01-23_08h59.11.962,bars,2023.2.3,Win32,60.24096386,657b66ea316d21385b68909f,,,,,,,,,,,744.4953,745.4934,,,745.9931,746.2429,,36,216,,,,,,,,,,,,,,,,bars/007.png,bars/mask002.png,,,,,,,,,,,,0,2,,,,,,,2,2,4,1,,,,,,,,,,,745.4934,745.993,746.2429,749.0084,space,2.7589,,749.0084,41,19,750.0078,750.0078,750.0351,,,,0,35,35,35,1,175,55,,,,,,,,
,,60a252f3da4306c3c3de2889,65af5579f3ebe8cc90bc71b7,2024-01-23_08h59.11.962,bars,2023.2.3,Win32,60.24096386,657b66ea316d21385b68909f,,,,,,,,,,,750.0356,751.0245,,,751.524,751.7737,,99,99,,,,,,,,,,,,,,,,bars/025.png,bars/mask001.png,,,,,,,,,,,,2,1,,,,,,,0,0,2,0,,,,,,,,,,,751.0245,751.524,751.7737,754.2898,space,2.5048,,754.2899,6,59,755.2892,755.2892,755.3179,,,,0,36,36,36,1,105,40,,,,,,,,
,,60a252f3da4306c3c3de2889,65af5579f3ebe8cc90bc71b7,2024-01-23_08h59.11.962,bars,2023.2.3,Win32,60.24096386,657b66ea316d21385b68909f,,,,,,,,,,,755.3183,756.3221,,,756.8216,757.0715,,75,75,,,,,,,,,,,,,,,,bars/026.png,bars/mask000.png,,,,,,,,,,,,1,2,,,,,,,0,2,0,1,,,,,,,,,,,756.3221,756.8215,757.0715,760.0202,space,2.9395,,760.0202,40,10,761.0195,761.0195,761.0385,,,,0,37,37,37,1,35,85,,,,,,,,
,,60a252f3da4306c3c3de2889,65af5579f3ebe8cc90bc71b7,2024-01-23_08h59.11.962,bars,2023.2.3,Win32,60.24096386,657b66ea316d21385b68909f,,,,,,,,,,,761.0388,762.0358,,,762.5356,762.7858,,2,2,,,,,,,,,,,,,,,,bars/041.png,bars/mask009.png,,,,,,,,,,,,1,1,,,,,,,2,4,3,2,,,,,,,,,,,762.0358,762.5356,762.7858,763.5518,space,0.7577,,763.5519,18,83,764.5513,764.5513,764.5536,,,,0,38,38,38,1,20,85,,,,,,,,
,,60a252f3da4306c3c3de2889,65af5579f3ebe8cc90bc71b7,2024-01-23_08h59.11.962,bars,2023.2.3,Win32,60.24096386,657b66ea316d21385b68909f,,,,,,,,,,,764.5543,765.5509,,,766.0507,766.3008,,136,136,,,,,,,,,,,,,,,,bars/037.png,bars/mask000.png,,,,,,,,,,,,2,1,,,,,,,4,2,3,1,,,,,,,,,,,765.5509,766.0507,766.3008,768.0502,space,1.7394,,768.0503,14,31,769.0494,769.0495,769.0771,,,,0,39,39,39,1,150,105,,,,,,,,
,,60a252f3da4306c3c3de2889,65af5579f3ebe8cc90bc71b7,2024-01-23_08h59.11.962,bars,2023.2.3,Win32,60.24096386,657b66ea316d21385b68909f,,,,,,,,,,,769.0775,770.0659,,,770.5657,770.8152,,24,24,,,,,,,,,,,,,,,,bars/005.png,bars/mask004.png,,,,,,,,,,,,3,1,,,,,,,6,0,5,0,,,,,,,,,,,770.0659,770.5656,770.8152,772.5316,space,1.7109,,772.5317,14,64,773.5309,773.5309,773.5592,,,,0,40,40,40,1,10,140,,,,,,,,
,,60a252f3da4306c3c3de2889,65af5579f3ebe8cc90bc71b7,2024-01-23_08h59.11.962,bars,2023.2.3,Win32,60.24096386,657b66ea316d21385b68909f,,,,,,,,,,,773.5596,774.5637,,,775.0637,775.3137,,146,146,,,,,,,,,,,,,,,,bars/040.png,bars/mask009.png,,,,,,,,,,,,8,1,,,,,,,8,2,10,3,,,,,,,,,,,774.5637,775.0637,775.3138,778.1786,space,2.8567,,778.1786,6,39,779.1787,779.1787,779.2061,,,,0,41,41,41,1,140,5,,,,,,,,
,,60a252f3da4306c3c3de2889,65af5579f3ebe8cc90bc71b7,2024-01-23_08h59.11.962,bars,2023.2.3,Win32,60.24096386,657b66ea316d21385b68909f,,,,,,,,,,,779.2065,780.1947,,,780.6944,780.9443,,106,-74,,,,,,,,,,,,,,,,bars/045.png,bars/mask005.png,,,,,,,,,,,,6,1,,,,,,,6,4,7,4,,,,,,,,,,,780.1947,780.6944,780.9443,783.9263,space,2.9737,,783.9264,6,84,784.926,784.9261,784.9528,,,,0,42,42,42,1,100,10,,,,,,,,
,,60a252f3da4306c3c3de2889,65af5579f3ebe8cc90bc71b7,2024-01-23_08h59.11.962,bars,2023.2.3,Win32,60.24096386,657b66ea316d21385b68909f,,,,,,,,,,,784.9533,785.9422,,,786.4423,786.6917,,52,52,,,,,,,,,,,,,,,,bars/028.png,bars/mask008.png,,,,,,,,,,,,3,1,,,,,,,4,6,4,6,,,,,,,,,,,785.9422,786.4422,786.6917,789.5742,space,2.8665,,789.5743,7,68,790.5736,790.5737,790.6016,,,,0,43,43,43,1,45,120,,,,,,,,
,,60a252f3da4306c3c3de2889,65af5579f3ebe8cc90bc71b7,2024-01-23_08h59.11.962,bars,2023.2.3,Win32,60.24096386,657b66ea316d21385b68909f,,,,,,,,,,,790.602,791.5897,,,792.0895,792.3395,,15,15,,,,,,,,,,,,,,,,bars/023.png,bars/mask002.png,,,,,,,,,,,,4,1,,,,,,,6,8,5,9,,,,,,,,,,,791.5897,792.0894,792.3396,794.5385,space,2.1875,,794.5385,5,80,795.5376,795.5376,795.5643,,,,0,44,44,44,1,20,115,,,,,,,,
,,60a252f3da4306c3c3de2889,65af5579f3ebe8cc90bc71b7,2024-01-23_08h59.11.962,bars,2023.2.3,Win32,60.24096386,657b66ea316d21385b68909f,,,,,,,,,,,795.5647,796.5543,,,797.0539,797.3035,,126,126,,,,,,,,,,,,,,,,bars/032.png,bars/mask006.png,,,,,,,,,,,,7,1,,,,,,,8,10,7,10,,,,,,,,,,,796.5543,797.0539,797.3035,800.9525,space,3.6334,,800.9525,1,74,801.952,801.9521,801.9792,,,,0,45,45,45,1,125,20,,,,,,,,
,,60a252f3da4306c3c3de2889,65af5579f3ebe8cc90bc71b7,2024-01-23_08h59.11.962,bars,2023.2.3,Win32,60.24096386,657b66ea316d21385b68909f,,,,,,,,,,,801.9797,802.968,,,803.4674,803.7175,,115,-65,,,,,,,,,,,,,,,,bars/015.png,bars/mask009.png,,,,,,,,,,,,4,1,,,,,,,6,8,5,9,,,,,,,,,,,802.968,803.4673,803.7175,806.9494,space,3.2184,,806.9494,5,45,807.9489,807.949,807.9757,,,,0,46,46,46,1,110,160,,,,,,,,
,,60a252f3da4306c3c3de2889,65af5579f3ebe8cc90bc71b7,2024-01-23_08h59.11.962,bars,2023.2.3,Win32,60.24096386,657b66ea316d21385b68909f,,,,,,,,,,,807.9761,808.965,,,809.4653,809.7152,,85,85,,,,,,,,,,,,,,,,bars/029.png,bars/mask008.png,,,,,,,,,,,,3,1,,,,,,,4,6,3,7,,,,,,,,,,,808.9651,809.4652,809.7153,811.8332,space,2.1061,,811.8333,5,40,812.83,812.8301,812.8314,,,,0,47,47,47,1,90,45,,,,,,,,
,,60a252f3da4306c3c3de2889,65af5579f3ebe8cc90bc71b7,2024-01-23_08h59.11.962,bars,2023.2.3,Win32,60.24096386,657b66ea316d21385b68909f,,,,,,,,,,,812.8319,813.8295,,,814.3294,814.5797,,104,104,,,,,,,,,,,,,,,,bars/027.png,bars/mask001.png,,,,,,,,,,,,2,1,,,,,,,6,8,3,8,,,,,,,,,,,813.8296,814.3294,814.5797,817.8946,space,3.3063,,817.8947,6,54,818.894,818.8941,818.9223,,,,0,48,48,48,1,110,50,,,,,,,,
,,60a252f3da4306c3c3de2889,65af5579f3ebe8cc90bc71b7,2024-01-23_08h59.11.962,bars,2023.2.3,Win32,60.24096386,657b66ea316d21385b68909f,,,,,,,,,,,818.9228,819.9273,,,820.4269,820.6765,,75,75,,,,,,,,,,,,,,,,bars/029.png,bars/mask006.png,,,,,,,,,,,,2,1,,,,,,,4,10,4,10,,,,,,,,,,,819.9273,820.4268,820.6765,821.8761,space,1.1889,,821.8761,15,30,822.8757,822.8758,822.9027,,,,0,49,49,49,1,90,45,,,,,,,,
,,60a252f3da4306c3c3de2889,65af5579f3ebe8cc90bc71b7,2024-01-23_08h59.11.962,bars,2023.2.3,Win32,60.24096386,657b66ea316d21385b68909f,,,,,,,,,,,,,,,,,,,,,,,,,,,,,,,,,,,,,,,,,,,,,,,,,,,,,,,,,,,,,,,,,,,,,,,,,,,,,,,,,,,,,,,,,,,,,822.9028,882.8986,0,1,1,2,1,sequence_tables/blk010.csv
,,60a252f3da4306c3c3de2889,65af5579f3ebe8cc90bc71b7,2024-01-23_08h59.11.962,bars,2023.2.3,Win32,60.24096386,657b66ea316d21385b68909f,,,,,,,,,,,915.1704,916.151,,,916.6509,916.9004,,101,101,,,,,,,,,,,,,,,,bars/006.png,bars/mask006.png,,,,,,,,,,,,7,2,,,,,,,4,7,3,7,,,,,,882.9167,915.1347,space,32.2089,,916.151,916.6509,916.9005,918.4166,space,1.4984,,918.4167,66,1,919.4163,919.4164,919.4447,,,,0,0,0,0,1,35,100,,,,,,,,
,,60a252f3da4306c3c3de2889,65af5579f3ebe8cc90bc71b7,2024-01-23_08h59.11.962,bars,2023.2.3,Win32,60.24096386,657b66ea316d21385b68909f,,,,,,,,,,,919.4453,920.4489,,,920.9489,921.1989,,57,57,,,,,,,,,,,,,,,,bars/026.png,bars/mask009.png,,,,,,,,,,,,2,1,,,,,,,6,5,7,5,,,,,,,,,,,920.449,920.9489,921.1989,923.1811,space,1.9676,,923.1812,22,28,924.1805,924.1805,924.2088,,,,0,1,1,1,1,35,85,,,,,,,,
,,60a252f3da4306c3c3de2889,65af5579f3ebe8cc90bc71b7,2024-01-23_08h59.11.962,bars,2023.2.3,Win32,60.24096386,657b66ea316d21385b68909f,,,,,,,,,,,924.2093,925.2133,,,925.7132,925.9632,,100,100,,,,,,,,,,,,,,,,bars/025.png,bars/mask000.png,,,,,,,,,,,,3,1,,,,,,,4,3,4,4,,,,,,,,,,,925.2133,925.7132,925.9632,928.1287,space,2.1497,,928.1288,5,60,929.1285,929.1285,929.1298,,,,0,2,2,2,1,105,40,,,,,,,,
,,60a252f3da4306c3c3de2889,65af5579f3ebe8cc90bc71b7,2024-01-23_08h59.11.962,bars,2023.2.3,Win32,60.24096386,657b66ea316d21385b68909f,,,,,,,,,,,929.1302,930.1278,,,930.6279,930.8775,,76,76,,,,,,,,,,,,,,,,bars/022.png,bars/mask001.png,,,,,,,,,,,,1,1,,,,,,,2,5,2,5,,,,,,,,,,,930.1279,930.6279,930.8777,933.81,space,2.9171,,933.81,19,56,934.809,934.8091,934.836,,,,0,3,3,3,1,95,20,,,,,,,,
,,60a252f3da4306c3c3de2889,65af5579f3ebe8cc90bc71b7,2024-01-23_08h59.11.962,bars,2023.2.3,Win32,60.24096386,657b66ea316d21385b68909f,,,,,,,,,,,934.8365,935.8254,,,936.3253,936.5752,,54,54,,,,,,,,,,,,,,,,bars/035.png,bars/mask006.png,,,,,,,,,,,,3,2,,,,,,,0,3,1,4,,,,,,,,,,,935.8254,936.3251,936.5753,940.1904,space,3.5989,,940.1905,59,6,941.1897,941.1898,941.2196,,,,0,4,4,4,1,175,60,,,,,,,,
,,60a252f3da4306c3c3de2889,65af5579f3ebe8cc90bc71b7,2024-01-23_08h59.11.962,bars,2023.2.3,Win32,60.24096386,657b66ea316d21385b68909f,,,,,,,,,,,941.2201,942.2227,,,942.7226,942.9722,,172,172,,,,,,,,,,,,,,,,bars/014.png,bars/mask009.png,,,,,,,,,,,,1,2,,,,,,,0,5,0,2,,,,,,,,,,,942.2227,942.7225,942.9723,944.4718,space,1.4891,,944.4719,88,8,945.4711,945.4711,945.4979,,,,0,5,5,5,1,80,0,,,,,,,,
,,60a252f3da4306c3c3de2889,65af5579f3ebe8cc90bc71b7,2024-01-23_08h59.11.962,bars,2023.2.3,Win32,60.24096386,657b66ea316d21385b68909f,,,,,,,,,,,945.4983,946.4876,,,946.9874,947.2369,,97,97,,,,,,,,,,,,,,,,bars/037.png,bars/mask002.png,,,,,,,,,,,,4,2,,,,,,,2,7,3,6,,,,,,,,,,,946.4876,946.9873,947.237,948.6533,space,1.4004,,948.6533,53,8,949.6528,949.6528,949.6803,,,,0,6,6,6,1,150,105,,,,,,,,
,,60a252f3da4306c3c3de2889,65af5579f3ebe8cc90bc71b7,2024-01-23_08h59.11.962,bars,2023.2.3,Win32,60.24096386,657b66ea316d21385b68909f,,,,,,,,,,,949.6807,950.669,,,951.1687,951.4183,,34,34,,,,,,,,,,,,,,,,bars/031.png,bars/mask007.png,,,,,,,,,,,,9,2,,,,,,,0,9,0,9,,,,,,,,,,,950.669,951.1687,951.4184,952.3016,space,0.8737,,952.3018,86,1,953.3011,953.3011,953.3279,,,,0,7,7,7,1,120,35,,,,,,,,
,,60a252f3da4306c3c3de2889,65af5579f3ebe8cc90bc71b7,2024-01-23_08h59.11.962,bars,2023.2.3,Win32,60.24096386,657b66ea316d21385b68909f,,,,,,,,,,,953.3283,954.3175,,,954.8174,955.0668,,89,89,,,,,,,,,,,,,,,,bars/002.png,bars/mask009.png,,,,,,,,,,,,9,2,,,,,,,0,10,0,10,,,,,,,,,,,954.3176,954.8173,955.0669,956.4335,space,1.3508,,956.4335,41,4,957.4325,957.4325,957.4575,,,,0,8,8,8,1,130,85,,,,,,,,
,,60a252f3da4306c3c3de2889,65af5579f3ebe8cc90bc71b7,2024-01-23_08h59.11.962,bars,2023.2.3,Win32,60.24096386,657b66ea316d21385b68909f,,,,,,,,,,,957.4578,958.4485,,,958.9487,959.1984,,65,65,,,,,,,,,,,,,,,,bars/017.png,bars/mask007.png,,,,,,,,,,,,3,2,,,,,,,2,10,2,10,,,,,,,,,,,958.4485,958.9486,959.1984,960.7642,space,1.5494,,960.7643,80,20,961.7642,961.7642,961.7911,,,,0,9,9,9,1,145,45,,,,,,,,
,,60a252f3da4306c3c3de2889,65af5579f3ebe8cc90bc71b7,2024-01-23_08h59.11.962,bars,2023.2.3,Win32,60.24096386,657b66ea316d21385b68909f,,,,,,,,,,,961.7915,962.7799,,,963.2801,963.5296,,0,180,,,,,,,,,,,,,,,,bars/012.png,bars/mask008.png,,,,,,,,,,,,5,2,,,,,,,4,10,4,10,,,,,,,,,,,962.78,963.2801,963.5296,966.2291,space,2.6839,,966.2291,90,15,967.2283,967.2283,967.2295,,,,0,10,10,10,1,90,15,,,,,,,,
,,60a252f3da4306c3c3de2889,65af5579f3ebe8cc90bc71b7,2024-01-23_08h59.11.962,bars,2023.2.3,Win32,60.24096386,657b66ea316d21385b68909f,,,,,,,,,,,967.2298,968.2277,,,968.7275,968.9775,,70,70,,,,,,,,,,,,,,,,bars/001.png,bars/mask004.png,,,,,,,,,,,,5,2,,,,,,,2,10,0,10,,,,,,,,,,,968.2277,968.7275,968.9775,973.0424,space,4.0556,,973.0424,60,15,974.0416,974.0416,974.0684,,,,0,11,11,11,1,130,85,,,,,,,,
,,60a252f3da4306c3c3de2889,65af5579f3ebe8cc90bc71b7,2024-01-23_08h59.11.962,bars,2023.2.3,Win32,60.24096386,657b66ea316d21385b68909f,,,,,,,,,,,974.0688,975.0585,,,975.5582,975.8075,,131,131,,,,,,,,,,,,,,,,bars/004.png,bars/mask003.png,,,,,,,,,,,,8,2,,,,,,,4,10,4,10,,,,,,,,,,,975.0585,975.5581,975.8076,977.7074,space,1.8833,,977.7075,74,6,978.7063,978.7064,978.7076,,,,0,12,12,12,1,25,125,,,,,,,,
,,60a252f3da4306c3c3de2889,65af5579f3ebe8cc90bc71b7,2024-01-23_08h59.11.962,bars,2023.2.3,Win32,60.24096386,657b66ea316d21385b68909f,,,,,,,,,,,978.708,979.7059,,,980.2056,980.4558,,134,134,,,,,,,,,,,,,,,,bars/004.png,bars/mask002.png,,,,,,,,,,,,5,2,,,,,,,6,8,5,7,,,,,,,,,,,979.7059,980.2056,980.4559,982.4218,space,1.9505,,982.4219,71,9,983.4213,983.4213,983.4479,,,,0,13,13,13,1,25,125,,,,,,,,
,,60a252f3da4306c3c3de2889,65af5579f3ebe8cc90bc71b7,2024-01-23_08h59.11.962,bars,2023.2.3,Win32,60.24096386,657b66ea316d21385b68909f,,,,,,,,,,,983.4483,984.4377,,,984.9373,985.187,,69,69,,,,,,,,,,,,,,,,bars/047.png,bars/mask009.png,,,,,,,,,,,,10,2,,,,,,,4,10,4,10,,,,,,,,,,,984.4377,984.9371,985.1872,986.8363,space,1.6331,,986.8363,54,1,987.8357,987.8357,987.8652,,,,0,14,14,14,1,15,70,,,,,,,,
,,60a252f3da4306c3c3de2889,65af5579f3ebe8cc90bc71b7,2024-01-23_08h59.11.962,bars,2023.2.3,Win32,60.24096386,657b66ea316d21385b68909f,,,,,,,,,,,987.8657,988.8687,,,989.3685,989.6184,,144,144,,,,,,,,,,,,,,,,bars/005.png,bars/mask003.png,,,,,,,,,,,,9,2,,,,,,,2,10,2,10,,,,,,,,,,,988.8688,989.3685,989.6184,991.8341,space,2.1997,,991.8342,46,4,992.8334,992.8335,992.8348,,,,0,15,15,15,1,10,140,,,,,,,,
,,60a252f3da4306c3c3de2889,65af5579f3ebe8cc90bc71b7,2024-01-23_08h59.11.962,bars,2023.2.3,Win32,60.24096386,657b66ea316d21385b68909f,,,,,,,,,,,992.8353,993.8329,,,994.3331,994.5829,,72,72,,,,,,,,,,,,,,,,bars/041.png,bars/mask008.png,,,,,,,,,,,,5,2,,,,,,,4,10,5,8,,,,,,,,,,,993.833,994.3331,994.5829,997.0316,space,2.4419,,997.0317,52,13,998.031,998.031,998.0577,,,,0,16,16,16,1,20,85,,,,,,,,
,,60a252f3da4306c3c3de2889,65af5579f3ebe8cc90bc71b7,2024-01-23_08h59.11.962,bars,2023.2.3,Win32,60.24096386,657b66ea316d21385b68909f,,,,,,,,,,,998.058,999.0473,,,999.5476,999.7971,,100,100,,,,,,,,,,,,,,,,bars/011.png,bars/mask005.png,,,,,,,,,,,,5,2,,,,,,,6,10,9,9,,,,,,,,,,,999.0474,999.5474,999.7971,1001.7467,space,1.9331,,1001.7468,60,15,1002.746,1002.7461,1002.7475,,,,0,17,17,17,1,160,85,,,,,,,,
,,60a252f3da4306c3c3de2889,65af5579f3ebe8cc90bc71b7,2024-01-23_08h59.11.962,bars,2023.2.3,Win32,60.24096386,657b66ea316d21385b68909f,,,,,,,,,,,1002.748,1003.7452,,,1004.2453,1004.4952,,79,79,,,,,,,,,,,,,,,,bars/001.png,bars/mask000.png,,,,,,,,,,,,7,2,,,,,,,8,8,7,9,,,,,,,,,,,1003.7453,1004.2452,1004.4953,1009.8431,space,5.3321,,1009.8433,51,6,1010.8425,1010.8425,1010.8709,,,,0,18,18,18,1,130,85,,,,,,,,
,,60a252f3da4306c3c3de2889,65af5579f3ebe8cc90bc71b7,2024-01-23_08h59.11.962,bars,2023.2.3,Win32,60.24096386,657b66ea316d21385b68909f,,,,,,,,,,,1010.8714,1011.8748,,,1012.3749,1012.6246,,0,0,,,,,,,,,,,,,,,,bars/032.png,bars/mask008.png,,,,,,,,,,,,3,2,,,,,,,6,10,7,9,,,,,,,,,,,1011.8748,1012.3749,1012.6246,1013.7242,space,1.0839,,1013.7243,55,20,1014.7236,1014.7236,1014.7246,,,,0,19,19,19,1,125,20,,,,,,,,
,,60a252f3da4306c3c3de2889,65af5579f3ebe8cc90bc71b7,2024-01-23_08h59.11.962,bars,2023.2.3,Win32,60.24096386,657b66ea316d21385b68909f,,,,,,,,,,,1014.725,1015.7232,,,1016.223,1016.4729,,64,64,,,,,,,,,,,,,,,,bars/010.png,bars/mask008.png,,,,,,,,,,,,6,2,,,,,,,4,8,4,9,,,,,,,,,,,1015.7232,1016.2229,1016.4729,1018.8722,space,2.3836,,1018.8723,79,9,1019.8714,1019.8715,1019.8981,,,,0,20,20,20,1,165,55,,,,,,,,
,,60a252f3da4306c3c3de2889,65af5579f3ebe8cc90bc71b7,2024-01-23_08h59.11.962,bars,2023.2.3,Win32,60.24096386,657b66ea316d21385b68909f,,,,,,,,,,,1019.8985,1020.8881,,,1021.3877,1021.6376,,64,64,,,,,,,,,,,,,,,,bars/047.png,bars/mask000.png,,,,,,,,,,,,8,2,,,,,,,2,10,3,10,,,,,,,,,,,1020.8881,1021.3876,1021.6377,1024.0699,space,2.4171,,1024.07,49,6,1025.069,1025.069,1025.0914,,,,0,21,21,21,1,15,70,,,,,,,,
,,60a252f3da4306c3c3de2889,65af5579f3ebe8cc90bc71b7,2024-01-23_08h59.11.962,bars,2023.2.3,Win32,60.24096386,657b66ea316d21385b68909f,,,,,,,,,,,1025.0917,1026.0854,,,1026.5852,1026.8353,,68,68,,,,,,,,,,,,,,,,bars/047.png,bars/mask006.png,,,,,,,,,,,,8,2,,,,,,,4,10,4,9,,,,,,,,,,,1026.0854,1026.5851,1026.8354,1030.0671,space,3.2165,,1030.0671,53,2,1031.0668,1031.0668,1031.0934,,,,0,22,22,22,1,15,70,,,,,,,,
,,60a252f3da4306c3c3de2889,65af5579f3ebe8cc90bc71b7,2024-01-23_08h59.11.962,bars,2023.2.3,Win32,60.24096386,657b66ea316d21385b68909f,,,,,,,,,,,1031.0938,1032.0828,,,1032.5829,1032.8328,,55,55,,,,,,,,,,,,,,,,bars/034.png,bars/mask007.png,,,,,,,,,,,,5,2,,,,,,,6,8,5,8,,,,,,,,,,,1032.0829,1032.5829,1032.8328,1035.098,space,2.2501,,1035.0981,70,10,1036.0979,1036.098,1036.1252,,,,0,23,23,23,1,125,65,,,,,,,,
,,60a252f3da4306c3c3de2889,65af5579f3ebe8cc90bc71b7,2024-01-23_08h59.11.962,bars,2023.2.3,Win32,60.24096386,657b66ea316d21385b68909f,,,,,,,,,,,1036.1255,1037.1137,,,1037.6136,1037.8635,,3,3,,,,,,,,,,,,,,,,bars/008.png,bars/mask006.png,,,,,,,,,,,,9,2,,,,,,,4,10,2,10,,,,,,,,,,,1037.1138,1037.6136,1037.8636,1039.1297,space,1.2506,,1039.1297,73,3,1040.1292,1040.1292,1040.1304,,,,0,24,24,24,1,110,0,,,,,,,,
,,60a252f3da4306c3c3de2889,65af5579f3ebe8cc90bc71b7,2024-01-23_08h59.11.962,bars,2023.2.3,Win32,60.24096386,657b66ea316d21385b68909f,,,,,,,,,,,1040.1307,1041.1288,,,1041.6286,1041.8782,,168,-12,,,,,,,,,,,,,,,,bars/033.png,bars/mask004.png,,,,,,,,,,,,5,2,,,,,,,2,8,2,9,,,,,,,,,,,1041.1289,1041.6286,1041.8783,1043.3776,space,1.4881,,1043.3777,37,13,1044.3774,1044.3775,1044.3785,,,,0,25,25,25,1,25,155,,,,,,,,
,,60a252f3da4306c3c3de2889,65af5579f3ebe8cc90bc71b7,2024-01-23_08h59.11.962,bars,2023.2.3,Win32,60.24096386,657b66ea316d21385b68909f,,,,,,,,,,,1044.3789,1045.3767,,,1045.8768,1046.1266,,84,84,,,,,,,,,,,,,,,,bars/021.png,bars/mask008.png,,,,,,,,,,,,5,2,,,,,,,4,10,4,10,,,,,,,,,,,1045.3768,1045.8767,1046.1266,1049.192,space,3.0531,,1049.1921,71,14,1050.1915,1050.1915,1050.2185,,,,0,26,26,26,1,155,70,,,,,,,,
,,60a252f3da4306c3c3de2889,65af5579f3ebe8cc90bc71b7,2024-01-23_08h59.11.962,bars,2023.2.3,Win32,60.24096386,657b66ea316d21385b68909f,,,,,,,,,,,1050.2189,1051.2074,,,1051.7074,1051.9575,,146,146,,,,,,,,,,,,,,,,bars/043.png,bars/mask008.png,,,,,,,,,,,,3,2,,,,,,,6,8,5,7,,,,,,,,,,,1051.2075,1051.7073,1051.9575,1053.9731,space,2.0035,,1053.9732,64,16,1054.9723,1054.9724,1054.9735,,,,0,27,27,27,1,30,130,,,,,,,,
,,60a252f3da4306c3c3de2889,65af5579f3ebe8cc90bc71b7,2024-01-23_08h59.11.962,bars,2023.2.3,Win32,60.24096386,657b66ea316d21385b68909f,,,,,,,,,,,1054.974,1055.972,,,1056.4721,1056.722,,66,66,,,,,,,,,,,,,,,,bars/025.png,bars/mask002.png,,,,,,,,,,,,1,2,,,,,,,8,10,7,10,,,,,,,,,,,1055.9721,1056.472,1056.7221,1059.5212,space,2.7879,,1059.5213,39,26,1060.5198,1060.5199,1060.5465,,,,0,28,28,28,1,105,40,,,,,,,,
,,60a252f3da4306c3c3de2889,65af5579f3ebe8cc90bc71b7,2024-01-23_08h59.11.962,bars,2023.2.3,Win32,60.24096386,657b66ea316d21385b68909f,,,,,,,,,,,1060.547,1061.5365,,,1062.0364,1062.2863,,95,95,,,,,,,,,,,,,,,,bars/023.png,bars/mask005.png,,,,,,,,,,,,2,2,,,,,,,10,8,10,7,,,,,,,,,,,1061.5365,1062.0363,1062.2864,1063.7854,space,1.4858,,1063.7855,75,20,1064.7849,1064.7849,1064.786,,,,0,29,29,29,1,20,115,,,,,,,,
,,60a252f3da4306c3c3de2889,65af5579f3ebe8cc90bc71b7,2024-01-23_08h59.11.962,bars,2023.2.3,Win32,60.24096386,657b66ea316d21385b68909f,,,,,,,,,,,1064.7866,1065.7844,,,1066.2842,1066.5342,,71,71,,,,,,,,,,,,,,,,bars/041.png,bars/mask002.png,,,,,,,,,,,,4,2,,,,,,,8,6,8,7,,,,,,,,,,,1065.7844,1066.2842,1066.5342,1069.716,space,3.1721,,1069.716,51,14,1070.7159,1070.7159,1070.7429,,,,0,30,30,30,1,20,85,,,,,,,,
,,60a252f3da4306c3c3de2889,65af5579f3ebe8cc90bc71b7,2024-01-23_08h59.11.962,bars,2023.2.3,Win32,60.24096386,657b66ea316d21385b68909f,,,,,,,,,,,1070.7433,1071.7319,,,1072.2314,1072.4818,,107,107,,,,,,,,,,,,,,,,bars/019.png,bars/mask007.png,,,,,,,,,,,,5,2,,,,,,,10,4,10,5,,,,,,,,,,,1071.7319,1072.2314,1072.4818,1074.3474,space,1.8499,,1074.3474,62,2,1075.3467,1075.3467,1075.3478,,,,0,31,31,31,1,45,105,,,,,,,,
,,60a252f3da4306c3c3de2889,65af5579f3ebe8cc90bc71b7,2024-01-23_08h59.11.962,bars,2023.2.3,Win32,60.24096386,657b66ea316d21385b68909f,,,,,,,,,,,1075.3482,1076.3463,,,1076.8462,1077.0959,,81,81,,,,,,,,,,,,,,,,bars/009.png,bars/mask003.png,,,,,,,,,,,,0,2,,,,,,,10,2,10,2,,,,,,,,,,,1076.3464,1076.8461,1077.0959,1079.262,space,2.1584,,1079.262,66,24,1080.2613,1080.2613,1080.2879,,,,0,32,32,32,1,15,105,,,,,,,,
,,60a252f3da4306c3c3de2889,65af5579f3ebe8cc90bc71b7,2024-01-23_08h59.11.962,bars,2023.2.3,Win32,60.24096386,657b66ea316d21385b68909f,,,,,,,,,,,1080.2884,1081.2775,,,1081.7773,1082.0275,,50,50,,,,,,,,,,,,,,,,bars/005.png,bars/mask004.png,,,,,,,,,,,,0,1,,,,,,,10,4,10,6,,,,,,,,,,,1081.2776,1081.7772,1082.0276,1083.9097,space,1.8751,,1083.9098,40,90,1084.9094,1084.9095,1084.9128,,,,0,33,33,33,1,10,140,,,,,,,,
,,60a252f3da4306c3c3de2889,65af5579f3ebe8cc90bc71b7,2024-01-23_08h59.11.962,bars,2023.2.3,Win32,60.24096386,657b66ea316d21385b68909f,,,,,,,,,,,1084.9134,1085.9092,,,1086.4091,1086.6588,,142,142,,,,,,,,,,,,,,,,bars/011.png,bars/mask009.png,,,,,,,,,,,,2,1,,,,,,,8,6,6,7,,,,,,,,,,,1085.9092,1086.409,1086.6589,1089.4741,space,2.8046,,1089.4741,18,57,1090.4732,1090.4733,1090.5018,,,,0,34,34,34,1,160,85,,,,,,,,
,,60a252f3da4306c3c3de2889,65af5579f3ebe8cc90bc71b7,2024-01-23_08h59.11.962,bars,2023.2.3,Win32,60.24096386,657b66ea316d21385b68909f,,,,,,,,,,,1090.5023,1091.5063,,,1092.0064,1092.2556,,70,70,,,,,,,,,,,,,,,,bars/021.png,bars/mask001.png,,,,,,,,,,,,7,2,,,,,,,6,8,7,7,,,,,,,,,,,1091.5064,1092.0063,1092.2556,1094.1055,space,1.8389,,1094.1056,85,0,1095.1049,1095.1049,1095.1105,,,,0,35,35,35,1,155,70,,,,,,,,
,,60a252f3da4306c3c3de2889,65af5579f3ebe8cc90bc71b7,2024-01-23_08h59.11.962,bars,2023.2.3,Win32,60.24096386,657b66ea316d21385b68909f,,,,,,,,,,,1095.111,1096.1044,,,1096.6043,1096.8542,,45,45,,,,,,,,,,,,,,,,bars/004.png,bars/mask006.png,,,,,,,,,,,,3,1,,,,,,,8,10,9,10,,,,,,,,,,,1096.1045,1096.6043,1096.8542,1100.2523,space,3.38,,1100.2524,20,80,1101.2518,1101.2518,1101.2847,,,,0,36,36,36,1,25,125,,,,,,,,
,,60a252f3da4306c3c3de2889,65af5579f3ebe8cc90bc71b7,2024-01-23_08h59.11.962,bars,2023.2.3,Win32,60.24096386,657b66ea316d21385b68909f,,,,,,,,,,,1101.2852,1102.285,,,1102.7846,1103.0344,,104,104,,,,,,,,,,,,,,,,bars/002.png,bars/mask001.png,,,,,,,,,,,,3,2,,,,,,,10,8,10,8,,,,,,,,,,,1102.285,1102.7846,1103.0344,1106.2168,space,3.1658,,1106.2168,26,19,1107.2159,1107.216,1107.2442,,,,0,37,37,37,1,130,85,,,,,,,,
,,60a252f3da4306c3c3de2889,65af5579f3ebe8cc90bc71b7,2024-01-23_08h59.11.962,bars,2023.2.3,Win32,60.24096386,657b66ea316d21385b68909f,,,,,,,,,,,1107.2447,1108.2325,,,1108.7322,1108.9817,,47,47,,,,,,,,,,,,,,,,bars/005.png,bars/mask003.png,,,,,,,,,,,,0,1,,,,,,,8,10,9,10,,,,,,,,,,,1108.2325,1108.7321,1108.9817,1110.8142,space,1.8273,,1110.8143,37,87,1111.814,1111.814,1111.8437,,,,0,38,38,38,1,10,140,,,,,,,,
,,60a252f3da4306c3c3de2889,65af5579f3ebe8cc90bc71b7,2024-01-23_08h59.11.962,bars,2023.2.3,Win32,60.24096386,657b66ea316d21385b68909f,,,,,,,,,,,1111.8441,1112.8468,,,1113.3466,1113.5967,,100,100,,,,,,,,,,,,,,,,bars/018.png,bars/mask007.png,,,,,,,,,,,,6,2,,,,,,,6,8,5,9,,,,,,,,,,,1112.8468,1113.3466,1113.5968,1115.5294,space,1.9187,,1115.5295,50,10,1116.5286,1116.5287,1116.557,,,,0,39,39,39,1,150,90,,,,,,,,
,,60a252f3da4306c3c3de2889,65af5579f3ebe8cc90bc71b7,2024-01-23_08h59.11.962,bars,2023.2.3,Win32,60.24096386,657b66ea316d21385b68909f,,,,,,,,,,,1116.5573,1117.5616,,,1118.0613,1118.311,,162,-18,,,,,,,,,,,,,,,,bars/040.png,bars/mask000.png,,,,,,,,,,,,1,1,,,,,,,4,6,4,6,,,,,,,,,,,1117.5616,1118.0613,1118.311,1121.0267,space,2.7022,,1121.0267,22,23,1122.026,1122.026,1122.0542,,,,0,40,40,40,1,140,5,,,,,,,,
,,60a252f3da4306c3c3de2889,65af5579f3ebe8cc90bc71b7,2024-01-23_08h59.11.962,bars,2023.2.3,Win32,60.24096386,657b66ea316d21385b68909f,,,,,,,,,,,1122.0546,1123.0426,,,1123.5424,1123.7921,,27,27,,,,,,,,,,,,,,,,bars/026.png,bars/mask005.png,,,,,,,,,,,,1,1,,,,,,,2,8,2,8,,,,,,,,,,,1123.0426,1123.5424,1123.7921,1125.6247,space,1.8193,,1125.6248,8,58,1126.6244,1126.6244,1126.6512,,,,0,41,41,41,1,35,85,,,,,,,,
,,60a252f3da4306c3c3de2889,65af5579f3ebe8cc90bc71b7,2024-01-23_08h59.11.962,bars,2023.2.3,Win32,60.24096386,657b66ea316d21385b68909f,,,,,,,,,,,1126.6516,1127.6401,,,1128.1403,1128.3899,,119,119,,,,,,,,,,,,,,,,bars/045.png,bars/mask002.png,,,,,,,,,,,,1,1,,,,,,,4,10,2,10,,,,,,,,,,,1127.6402,1128.1403,1128.3899,1131.2557,space,2.8501,,1131.2557,19,71,1132.2548,1132.2548,1132.2819,,,,0,42,42,42,1,100,10,,,,,,,,
,,60a252f3da4306c3c3de2889,65af5579f3ebe8cc90bc71b7,2024-01-23_08h59.11.962,bars,2023.2.3,Win32,60.24096386,657b66ea316d21385b68909f,,,,,,,,,,,1132.2824,1133.2713,,,1133.7709,1134.0207,,97,97,,,,,,,,,,,,,,,,bars/025.png,bars/mask006.png,,,,,,,,,,,,4,1,,,,,,,6,8,6,8,,,,,,,,,,,1133.2714,1133.7709,1134.0208,1135.0037,space,0.9671,,1135.0037,8,57,1136.0031,1136.0032,1136.0043,,,,0,43,43,43,1,105,40,,,,,,,,
,,60a252f3da4306c3c3de2889,65af5579f3ebe8cc90bc71b7,2024-01-23_08h59.11.962,bars,2023.2.3,Win32,60.24096386,657b66ea316d21385b68909f,,,,,,,,,,,1136.0048,1137.0029,,,1137.5027,1137.7526,,114,114,,,,,,,,,,,,,,,,bars/002.png,bars/mask002.png,,,,,,,,,,,,2,1,,,,,,,4,10,5,10,,,,,,,,,,,1137.003,1137.5027,1137.7527,1140.0183,space,2.2503,,1140.0183,16,29,1141.0179,1141.018,1141.0447,,,,0,44,44,44,1,130,85,,,,,,,,
,,60a252f3da4306c3c3de2889,65af5579f3ebe8cc90bc71b7,2024-01-23_08h59.11.962,bars,2023.2.3,Win32,60.24096386,657b66ea316d21385b68909f,,,,,,,,,,,1141.0452,1142.0337,,,1142.5336,1142.7835,,112,112,,,,,,,,,,,,,,,,bars/031.png,bars/mask008.png,,,,,,,,,,,,1,1,,,,,,,2,8,2,8,,,,,,,,,,,1142.0337,1142.5336,1142.7835,1145.1829,space,2.3862,,1145.183,8,77,1146.182,1146.182,1146.2087,,,,0,45,45,45,1,120,35,,,,,,,,
,,60a252f3da4306c3c3de2889,65af5579f3ebe8cc90bc71b7,2024-01-23_08h59.11.962,bars,2023.2.3,Win32,60.24096386,657b66ea316d21385b68909f,,,,,,,,,,,1146.2091,1147.1986,,,1147.6985,1147.9479,,127,127,,,,,,,,,,,,,,,,bars/040.png,bars/mask002.png,,,,,,,,,,,,0,1,,,,,,,0,10,0,10,,,,,,,,,,,1147.1986,1147.6984,1147.948,1149.9637,space,2.0076,,1149.9638,13,58,1150.9636,1150.9636,1150.9907,,,,0,46,46,46,1,140,5,,,,,,,,
,,60a252f3da4306c3c3de2889,65af5579f3ebe8cc90bc71b7,2024-01-23_08h59.11.962,bars,2023.2.3,Win32,60.24096386,657b66ea316d21385b68909f,,,,,,,,,,,1150.9911,1151.9797,,,1152.4795,1152.729,,112,112,,,,,,,,,,,,,,,,bars/031.png,bars/mask008.png,,,,,,,,,,,,0,1,,,,,,,0,8,0,7,,,,,,,,,,,1151.9797,1152.4794,1152.729,1154.3284,space,1.5871,,1154.3284,8,77,1155.3276,1155.3276,1155.3286,,,,0,47,47,47,1,120,35,,,,,,,,
,,60a252f3da4306c3c3de2889,65af5579f3ebe8cc90bc71b7,2024-01-23_08h59.11.962,bars,2023.2.3,Win32,60.24096386,657b66ea316d21385b68909f,,,,,,,,,,,1155.3289,1156.3271,,,1156.827,1157.0771,,22,202,,,,,,,,,,,,,,,,bars/031.png,bars/mask008.png,,,,,,,,,,,,6,2,,,,,,,0,10,0,10,,,,,,,,,,,1156.3271,1156.827,1157.0771,1161.0258,space,3.9363,,1161.0258,82,13,1162.0252,1162.0252,1162.0534,,,,0,48,48,48,1,120,35,,,,,,,,
,,60a252f3da4306c3c3de2889,65af5579f3ebe8cc90bc71b7,2024-01-23_08h59.11.962,bars,2023.2.3,Win32,60.24096386,657b66ea316d21385b68909f,,,,,,,,,,,1162.0538,1163.0578,,,1163.5576,1163.8076,,33,213,,,,,,,,,,,,,,,,bars/004.png,bars/mask006.png,,,,,,,,,,,,1,1,,,,,,,2,8,2,10,,,,,,,,,,,1163.0578,1163.5575,1163.8077,1167.5397,space,3.7155,,1167.5398,8,88,1168.539,1168.539,1168.5672,,,,0,49,49,49,1,25,125,,,,,,,,
,,60a252f3da4306c3c3de2889,65af5579f3ebe8cc90bc71b7,2024-01-23_08h59.11.962,bars,2023.2.3,Win32,60.24096386,657b66ea316d21385b68909f,,,,,,,,,,,,,,,,,,,,,,,,,,,,,,,,,,,,,,,,,,,,,,,,,,,,,,,,,,,,,,,,,,,,,,,,,,,,,,,,,,,,,,,,,,,,,1168.5676,1228.5619,0,2,2,4,1,sequence_tables/blk037.csv
,,60a252f3da4306c3c3de2889,65af5579f3ebe8cc90bc71b7,2024-01-23_08h59.11.962,bars,2023.2.3,Win32,60.24096386,657b66ea316d21385b68909f,,,,,,,,,,,1231.0021,1231.9942,,,1232.4938,1232.7435,,169,-11,,,,,,,,,,,,,,,,bars/007.png,bars/mask006.png,,,,,,,,,,,,0,1,,,,,,,0,3,0,3,,,,,,1228.5879,1230.9945,space,2.3918,,1231.9943,1232.4937,1232.7436,1234.3433,space,1.5907,,1234.3434,6,66,1235.3423,1235.3423,1235.372,,,,0,0,0,0,1,175,55,,,,,,,,
,,60a252f3da4306c3c3de2889,65af5579f3ebe8cc90bc71b7,2024-01-23_08h59.11.962,bars,2023.2.3,Win32,60.24096386,657b66ea316d21385b68909f,,,,,,,,,,,1235.3723,1236.375,,,1236.8751,1237.1248,,30,210,,,,,,,,,,,,,,,,bars/028.png,bars/mask004.png,,,,,,,,,,,,0,1,,,,,,,2,5,0,6,,,,,,,,,,,1236.3751,1236.875,1237.1248,1239.3075,space,2.1729,,1239.3076,15,90,1240.3069,1240.3071,1240.3085,,,,0,1,1,1,1,45,120,,,,,,,,
,,60a252f3da4306c3c3de2889,65af5579f3ebe8cc90bc71b7,2024-01-23_08h59.11.962,bars,2023.2.3,Win32,60.24096386,657b66ea316d21385b68909f,,,,,,,,,,,1240.309,1241.3065,,,1241.8064,1242.056,,173,173,,,,,,,,,,,,,,,,bars/024.png,bars/mask003.png,,,,,,,,,,,,5,2,,,,,,,0,7,0,6,,,,,,,,,,,1241.3065,1241.8064,1242.056,1243.2223,space,1.1503,,1243.2224,53,3,1244.2215,1244.2215,1244.2231,,,,0,2,2,2,1,120,170,,,,,,,,
,,60a252f3da4306c3c3de2889,65af5579f3ebe8cc90bc71b7,2024-01-23_08h59.11.962,bars,2023.2.3,Win32,60.24096386,657b66ea316d21385b68909f,,,,,,,,,,,1244.2234,1245.2216,,,1245.7211,1245.971,,62,62,,,,,,,,,,,,,,,,bars/026.png,bars/mask005.png,,,,,,,,,,,,1,2,,,,,,,2,5,2,5,,,,,,,,,,,1245.2216,1245.721,1245.971,1248.0536,space,2.0738,,1248.0537,27,23,1249.0532,1249.0533,1249.0802,,,,0,3,3,3,1,35,85,,,,,,,,
,,60a252f3da4306c3c3de2889,65af5579f3ebe8cc90bc71b7,2024-01-23_08h59.11.962,bars,2023.2.3,Win32,60.24096386,657b66ea316d21385b68909f,,,,,,,,,,,1249.0807,1250.0691,,,1250.5693,1250.8191,,151,-29,,,,,,,,,,,,,,,,bars/005.png,bars/mask006.png,,,,,,,,,,,,4,2,,,,,,,0,7,0,7,,,,,,,,,,,1250.0691,1250.5693,1250.8191,1253.1015,space,2.2721,,1253.1015,39,11,1254.1007,1254.1008,1254.1274,,,,0,4,4,4,1,10,140,,,,,,,,
,,60a252f3da4306c3c3de2889,65af5579f3ebe8cc90bc71b7,2024-01-23_08h59.11.962,bars,2023.2.3,Win32,60.24096386,657b66ea316d21385b68909f,,,,,,,,,,,1254.1278,1255.1169,,,1255.6171,1255.8666,,35,35,,,,,,,,,,,,,,,,bars/029.png,bars/mask007.png,,,,,,,,,,,,3,2,,,,,,,2,5,3,5,,,,,,,,,,,1255.1169,1255.6171,1255.8666,1257.4163,space,1.5337,,1257.4163,55,10,1258.4159,1258.416,1258.4171,,,,0,5,5,5,1,90,45,,,,,,,,
,,60a252f3da4306c3c3de2889,65af5579f3ebe8cc90bc71b7,2024-01-23_08h59.11.962,bars,2023.2.3,Win32,60.24096386,657b66ea316d21385b68909f,,,,,,,,,,,1258.4175,1259.4155,,,1259.9148,1260.165,,166,166,,,,,,,,,,,,,,,,bars/033.png,bars/mask003.png,,,,,,,,,,,,1,2,,,,,,,0,3,0,2,,,,,,,,,,,1259.4155,1259.9148,1260.1651,1261.7807,space,1.5999,,1261.7808,39,11,1262.7801,1262.7802,1262.8069,,,,0,6,6,6,1,25,155,,,,,,,,
,,60a252f3da4306c3c3de2889,65af5579f3ebe8cc90bc71b7,2024-01-23_08h59.11.962,bars,2023.2.3,Win32,60.24096386,657b66ea316d21385b68909f,,,,,,,,,,,1262.8073,1263.7969,,,1264.2969,1264.5463,,116,116,,,,,,,,,,,,,,,,bars/028.png,bars/mask006.png,,,,,,,,,,,,4,2,,,,,,,2,5,3,5,,,,,,,,,,,1263.7969,1264.2968,1264.5464,1267.0784,space,2.525,,1267.0785,71,4,1268.0772,1268.0772,1268.086,,,,0,7,7,7,1,45,120,,,,,,,,
,,60a252f3da4306c3c3de2889,65af5579f3ebe8cc90bc71b7,2024-01-23_08h59.11.962,bars,2023.2.3,Win32,60.24096386,657b66ea316d21385b68909f,,,,,,,,,,,1268.0861,1269.0774,,,1269.5775,1269.8271,,82,82,,,,,,,,,,,,,,,,bars/021.png,bars/mask005.png,,,,,,,,,,,,5,2,,,,,,,0,7,0,8,,,,,,,,,,,1269.0774,1269.5774,1269.8271,1272.2098,space,2.3669,,1272.2098,73,12,1273.2093,1273.2093,1273.2369,,,,0,8,8,8,1,155,70,,,,,,,,
,,60a252f3da4306c3c3de2889,65af5579f3ebe8cc90bc71b7,2024-01-23_08h59.11.962,bars,2023.2.3,Win32,60.24096386,657b66ea316d21385b68909f,,,,,,,,,,,1273.2373,1274.2416,,,1274.7417,1274.9913,,169,-11,,,,,,,,,,,,,,,,bars/033.png,bars/mask003.png,,,,,,,,,,,,3,2,,,,,,,2,5,3,5,,,,,,,,,,,1274.2417,1274.7416,1274.9913,1279.8061,space,4.802,,1279.8062,36,14,1280.8055,1280.8055,1280.8323,,,,0,9,9,9,1,25,155,,,,,,,,
,,60a252f3da4306c3c3de2889,65af5579f3ebe8cc90bc71b7,2024-01-23_08h59.11.962,bars,2023.2.3,Win32,60.24096386,657b66ea316d21385b68909f,,,,,,,,,,,1280.8327,1281.8223,,,1282.322,1282.5716,,50,50,,,,,,,,,,,,,,,,bars/034.png,bars/mask002.png,,,,,,,,,,,,4,2,,,,,,,0,7,1,7,,,,,,,,,,,1281.8224,1282.3219,1282.5717,1284.0208,space,1.4413,,1284.0209,75,15,1285.0207,1285.0207,1285.0481,,,,0,10,10,10,1,125,65,,,,,,,,
,,60a252f3da4306c3c3de2889,65af5579f3ebe8cc90bc71b7,2024-01-23_08h59.11.962,bars,2023.2.3,Win32,60.24096386,657b66ea316d21385b68909f,,,,,,,,,,,1285.0485,1286.0362,,,1286.5361,1286.7861,,33,33,,,,,,,,,,,,,,,,bars/013.png,bars/mask001.png,,,,,,,,,,,,2,2,,,,,,,0,9,1,10,,,,,,,,,,,1286.0363,1286.5361,1286.7861,1288.2687,space,1.4767,,1288.2688,42,23,1289.2684,1289.2684,1289.2907,,,,0,11,11,11,1,75,10,,,,,,,,
,,60a252f3da4306c3c3de2889,65af5579f3ebe8cc90bc71b7,2024-01-23_08h59.11.962,bars,2023.2.3,Win32,60.24096386,657b66ea316d21385b68909f,,,,,,,,,,,1289.291,1290.2846,,,1290.7847,1291.0346,,65,65,,,,,,,,,,,,,,,,bars/029.png,bars/mask007.png,,,,,,,,,,,,2,2,,,,,,,2,7,2,7,,,,,,,,,,,1290.2848,1290.7846,1291.0347,1292.8838,space,1.8332,,1292.8839,25,20,1293.8832,1293.8833,1293.885,,,,0,12,12,12,1,90,45,,,,,,,,
,,60a252f3da4306c3c3de2889,65af5579f3ebe8cc90bc71b7,2024-01-23_08h59.11.962,bars,2023.2.3,Win32,60.24096386,657b66ea316d21385b68909f,,,,,,,,,,,1293.8856,1294.883,,,1295.3826,1295.6326,,9,189,,,,,,,,,,,,,,,,bars/022.png,bars/mask002.png,,,,,,,,,,,,3,2,,,,,,,4,5,3,5,,,,,,,,,,,1294.8831,1295.3825,1295.6327,1297.7983,space,2.1555,,1297.7984,86,11,1298.7977,1298.7978,1298.8268,,,,0,13,13,13,1,95,20,,,,,,,,
,,60a252f3da4306c3c3de2889,65af5579f3ebe8cc90bc71b7,2024-01-23_08h59.11.962,bars,2023.2.3,Win32,60.24096386,657b66ea316d21385b68909f,,,,,,,,,,,1298.8272,1299.8306,,,1300.3305,1300.58,,83,83,,,,,,,,,,,,,,,,bars/046.png,bars/mask003.png,,,,,,,,,,,,3,2,,,,,,,2,3,1,3,,,,,,,,,,,1299.8307,1300.3304,1300.5801,1302.0462,space,1.4506,,1302.0463,72,2,1303.0459,1303.0459,1303.0726,,,,0,14,14,14,1,155,85,,,,,,,,
,,60a252f3da4306c3c3de2889,65af5579f3ebe8cc90bc71b7,2024-01-23_08h59.11.962,bars,2023.2.3,Win32,60.24096386,657b66ea316d21385b68909f,,,,,,,,,,,1303.073,1304.0619,,,1304.5618,1304.8118,,49,49,,,,,,,,,,,,,,,,bars/035.png,bars/mask007.png,,,,,,,,,,,,2,2,,,,,,,4,1,3,3,,,,,,,,,,,1304.0619,1304.5618,1304.8119,1308.5934,space,3.7663,,1308.5935,54,11,1309.5927,1309.5927,1309.6197,,,,0,15,15,15,1,175,60,,,,,,,,
,,60a252f3da4306c3c3de2889,65af5579f3ebe8cc90bc71b7,2024-01-23_08h59.11.962,bars,2023.2.3,Win32,60.24096386,657b66ea316d21385b68909f,,,,,,,,,,,1309.6201,1310.609,,,1311.1088,1311.3587,,155,155,,,,,,,,,,,,,,,,bars/044.png,bars/mask001.png,,,,,,,,,,,,0,2,,,,,,,6,0,5,0,,,,,,,,,,,1310.609,1311.1087,1311.3588,1312.9415,space,1.5756,,1312.9416,80,0,1313.9408,1313.9408,1313.9419,,,,0,16,16,16,1,75,155,,,,,,,,
,,60a252f3da4306c3c3de2889,65af5579f3ebe8cc90bc71b7,2024-01-23_08h59.11.962,bars,2023.2.3,Win32,60.24096386,657b66ea316d21385b68909f,,,,,,,,,,,1313.9423,1314.9403,,,1315.4404,1315.69,,75,75,,,,,,,,,,,,,,,,bars/029.png,bars/mask006.png,,,,,,,,,,,,3,1,,,,,,,4,2,5,2,,,,,,,,,,,1314.9404,1315.4403,1315.69,1318.0227,space,2.3235,,1318.0227,15,30,1319.0217,1319.0218,1319.0505,,,,0,17,17,17,1,90,45,,,,,,,,
,,60a252f3da4306c3c3de2889,65af5579f3ebe8cc90bc71b7,2024-01-23_08h59.11.962,bars,2023.2.3,Win32,60.24096386,657b66ea316d21385b68909f,,,,,,,,,,,1319.051,1320.055,,,1320.5546,1320.8049,,75,75,,,,,,,,,,,,,,,,bars/012.png,bars/mask009.png,,,,,,,,,,,,4,1,,,,,,,6,4,7,4,,,,,,,,,,,1320.0551,1320.5546,1320.8049,1323.3034,space,2.4906,,1323.3035,15,60,1324.3028,1324.3029,1324.3298,,,,0,18,18,18,1,90,15,,,,,,,,
,,60a252f3da4306c3c3de2889,65af5579f3ebe8cc90bc71b7,2024-01-23_08h59.11.962,bars,2023.2.3,Win32,60.24096386,657b66ea316d21385b68909f,,,,,,,,,,,1324.3303,1325.3193,,,1325.8186,1326.0689,,145,145,,,,,,,,,,,,,,,,bars/001.png,bars/mask008.png,,,,,,,,,,,,3,1,,,,,,,4,2,6,3,,,,,,,,,,,1325.3194,1325.8185,1326.0689,1328.218,space,2.141,,1328.218,15,60,1329.2176,1329.2176,1329.2448,,,,0,19,19,19,1,130,85,,,,,,,,
,,60a252f3da4306c3c3de2889,65af5579f3ebe8cc90bc71b7,2024-01-23_08h59.11.962,bars,2023.2.3,Win32,60.24096386,657b66ea316d21385b68909f,,,,,,,,,,,1329.2452,1330.2336,,,1330.7333,1330.9835,,73,73,,,,,,,,,,,,,,,,bars/048.png,bars/mask004.png,,,,,,,,,,,,2,1,,,,,,,6,4,8,4,,,,,,,,,,,1330.2336,1330.7333,1330.9835,1332.6325,space,1.6431,,1332.6326,23,78,1333.6323,1333.6323,1333.6589,,,,0,20,20,20,1,50,175,,,,,,,,
,,60a252f3da4306c3c3de2889,65af5579f3ebe8cc90bc71b7,2024-01-23_08h59.11.962,bars,2023.2.3,Win32,60.24096386,657b66ea316d21385b68909f,,,,,,,,,,,1333.6593,1334.6483,,,1335.1481,1335.3984,,163,-17,,,,,,,,,,,,,,,,bars/021.png,bars/mask009.png,,,,,,,,,,,,7,1,,,,,,,8,6,9,6,,,,,,,,,,,1334.6483,1335.1481,1335.3984,1337.9473,space,2.5327,,1337.9473,8,87,1338.9468,1338.9468,1338.9741,,,,0,21,21,21,1,155,70,,,,,,,,
,,60a252f3da4306c3c3de2889,65af5579f3ebe8cc90bc71b7,2024-01-23_08h59.11.962,bars,2023.2.3,Win32,60.24096386,657b66ea316d21385b68909f,,,,,,,,,,,1338.9745,1339.9628,,,1340.4627,1340.7121,,122,122,,,,,,,,,,,,,,,,bars/040.png,bars/mask006.png,,,,,,,,,,,,4,1,,,,,,,10,8,9,8,,,,,,,,,,,1339.9628,1340.4627,1340.7122,1342.7948,space,2.0651,,1342.7949,18,63,1343.7941,1343.7942,1343.8207,,,,0,22,22,22,1,140,5,,,,,,,,
,,60a252f3da4306c3c3de2889,65af5579f3ebe8cc90bc71b7,2024-01-23_08h59.11.962,bars,2023.2.3,Win32,60.24096386,657b66ea316d21385b68909f,,,,,,,,,,,1343.8212,1344.8104,,,1345.3104,1345.5601,,17,17,,,,,,,,,,,,,,,,bars/004.png,bars/mask003.png,,,,,,,,,,,,5,1,,,,,,,8,10,7,10,,,,,,,,,,,1344.8105,1345.3103,1345.5601,1347.0097,space,1.4418,,1347.0097,8,72,1348.0088,1348.0088,1348.0098,,,,0,23,23,23,1,25,125,,,,,,,,
,,60a252f3da4306c3c3de2889,65af5579f3ebe8cc90bc71b7,2024-01-23_08h59.11.962,bars,2023.2.3,Win32,60.24096386,657b66ea316d21385b68909f,,,,,,,,,,,1348.0103,1349.0085,,,1349.5084,1349.7585,,60,60,,,,,,,,,,,,,,,,bars/004.png,bars/mask007.png,,,,,,,,,,,,0,1,,,,,,,10,8,10,8,,,,,,,,,,,1349.0085,1349.5084,1349.7586,1351.9907,space,2.2163,,1351.9908,35,65,1352.9898,1352.9898,1353.006,,,,0,24,24,24,1,25,125,,,,,,,,
,,60a252f3da4306c3c3de2889,65af5579f3ebe8cc90bc71b7,2024-01-23_08h59.11.962,bars,2023.2.3,Win32,60.24096386,657b66ea316d21385b68909f,,,,,,,,,,,1353.0063,1354.0066,,,1354.5066,1354.756,,109,109,,,,,,,,,,,,,,,,bars/029.png,bars/mask001.png,,,,,,,,,,,,4,1,,,,,,,8,6,10,6,,,,,,,,,,,1354.0066,1354.5065,1354.7561,1358.1881,space,3.4217,,1358.1881,19,64,1359.1877,1359.1877,1359.2156,,,,0,25,25,25,1,90,45,,,,,,,,
,,60a252f3da4306c3c3de2889,65af5579f3ebe8cc90bc71b7,2024-01-23_08h59.11.962,bars,2023.2.3,Win32,60.24096386,657b66ea316d21385b68909f,,,,,,,,,,,1359.2159,1360.2038,,,1360.7035,1360.9536,,159,-21,,,,,,,,,,,,,,,,bars/038.png,bars/mask005.png,,,,,,,,,,,,5,1,,,,,,,6,4,6,4,,,,,,,,,,,1360.2039,1360.7035,1360.9536,1364.3853,space,3.4156,,1364.3853,6,89,1365.3848,1365.3848,1365.4124,,,,0,26,26,26,1,165,70,,,,,,,,
,,60a252f3da4306c3c3de2889,65af5579f3ebe8cc90bc71b7,2024-01-23_08h59.11.962,bars,2023.2.3,Win32,60.24096386,657b66ea316d21385b68909f,,,,,,,,,,,1365.4127,1366.4007,,,1366.9007,1367.1504,,13,193,,,,,,,,,,,,,,,,bars/023.png,bars/mask001.png,,,,,,,,,,,,6,1,,,,,,,8,6,8,7,,,,,,,,,,,1366.4007,1366.9006,1367.1505,1368.7166,space,1.5498,,1368.7167,7,78,1369.7164,1369.7164,1369.743,,,,0,27,27,27,1,20,115,,,,,,,,
,,60a252f3da4306c3c3de2889,65af5579f3ebe8cc90bc71b7,2024-01-23_08h59.11.962,bars,2023.2.3,Win32,60.24096386,657b66ea316d21385b68909f,,,,,,,,,,,1369.7435,1370.7326,,,1371.2324,1371.4827,,161,-19,,,,,,,,,,,,,,,,bars/036.png,bars/mask002.png,,,,,,,,,,,,4,1,,,,,,,6,8,8,10,,,,,,,,,,,1370.7327,1371.2323,1371.4828,1372.6154,space,1.1176,,1372.6154,16,39,1373.6147,1373.6147,1373.6157,,,,0,28,28,28,1,145,20,,,,,,,,
,,60a252f3da4306c3c3de2889,65af5579f3ebe8cc90bc71b7,2024-01-23_08h59.11.962,bars,2023.2.3,Win32,60.24096386,657b66ea316d21385b68909f,,,,,,,,,,,1373.6162,1374.614,,,1375.1141,1375.3639,,77,77,,,,,,,,,,,,,,,,bars/022.png,bars/mask009.png,,,,,,,,,,,,3,1,,,,,,,8,6,7,6,,,,,,,,,,,1374.6141,1375.114,1375.364,1376.8301,space,1.4583,,1376.8301,18,57,1377.8294,1377.8294,1377.8305,,,,0,29,29,29,1,95,20,,,,,,,,
,,60a252f3da4306c3c3de2889,65af5579f3ebe8cc90bc71b7,2024-01-23_08h59.11.962,bars,2023.2.3,Win32,60.24096386,657b66ea316d21385b68909f,,,,,,,,,,,1377.831,1378.829,,,1379.3289,1379.5783,,19,199,,,,,,,,,,,,,,,,bars/005.png,bars/mask008.png,,,,,,,,,,,,7,1,,,,,,,10,8,10,8,,,,,,,,,,,1378.829,1379.3289,1379.5784,1381.7776,space,2.1834,,1381.7776,9,59,1382.7771,1382.7771,1382.7782,,,,0,30,30,30,1,10,140,,,,,,,,
,,60a252f3da4306c3c3de2889,65af5579f3ebe8cc90bc71b7,2024-01-23_08h59.11.962,bars,2023.2.3,Win32,60.24096386,657b66ea316d21385b68909f,,,,,,,,,,,1382.7786,1383.7768,,,1384.2765,1384.5265,,32,212,,,,,,,,,,,,,,,,bars/004.png,bars/mask009.png,,,,,,,,,,,,5,1,,,,,,,8,10,6,9,,,,,,,,,,,1383.7769,1384.2765,1384.5265,1387.5751,space,3.0323,,1387.5752,7,87,1388.5743,1388.5744,1388.5946,,,,0,31,31,31,1,25,125,,,,,,,,
,,60a252f3da4306c3c3de2889,65af5579f3ebe8cc90bc71b7,2024-01-23_08h59.11.962,bars,2023.2.3,Win32,60.24096386,657b66ea316d21385b68909f,,,,,,,,,,,1388.5948,1389.5906,,,1390.0905,1390.3401,,108,108,,,,,,,,,,,,,,,,bars/025.png,bars/mask006.png,,,,,,,,,,,,5,1,,,,,,,6,8,6,8,,,,,,,,,,,1389.5907,1390.0904,1390.3401,1391.9566,space,1.6052,,1391.9566,3,68,1392.9561,1392.9561,1392.9572,,,,0,32,32,32,1,105,40,,,,,,,,
,,60a252f3da4306c3c3de2889,65af5579f3ebe8cc90bc71b7,2024-01-23_08h59.11.962,bars,2023.2.3,Win32,60.24096386,657b66ea316d21385b68909f,,,,,,,,,,,1392.9576,1393.9556,,,1394.4556,1394.7054,,50,50,,,,,,,,,,,,,,,,bars/006.png,bars/mask006.png,,,,,,,,,,,,4,1,,,,,,,8,10,8,10,,,,,,,,,,,1393.9557,1394.4555,1394.7054,1396.4547,space,1.7355,,1396.4548,15,50,1397.454,1397.4542,1397.482,,,,0,33,33,33,1,35,100,,,,,,,,
,,60a252f3da4306c3c3de2889,65af5579f3ebe8cc90bc71b7,2024-01-23_08h59.11.962,bars,2023.2.3,Win32,60.24096386,657b66ea316d21385b68909f,,,,,,,,,,,1397.4825,1398.4865,,,1398.9864,1399.2365,,144,144,,,,,,,,,,,,,,,,bars/036.png,bars/mask000.png,,,,,,,,,,,,6,1,,,,,,,6,8,6,10,,,,,,,,,,,1398.4866,1398.9863,1399.2365,1402.6185,space,3.3657,,1402.6185,1,56,1403.6178,1403.6178,1403.6453,,,,0,34,34,34,1,145,20,,,,,,,,
,,60a252f3da4306c3c3de2889,65af5579f3ebe8cc90bc71b7,2024-01-23_08h59.11.962,bars,2023.2.3,Win32,60.24096386,657b66ea316d21385b68909f,,,,,,,,,,,1403.6458,1404.6341,,,1405.134,1405.3838,,169,-11,,,,,,,,,,,,,,,,bars/036.png,bars/mask009.png,,,,,,,,,,,,1,1,,,,,,,4,6,4,6,,,,,,,,,,,1404.6341,1405.134,1405.3838,1407.1331,space,1.7311,,1407.1332,24,31,1408.1326,1408.1327,1408.1337,,,,0,35,35,35,1,145,20,,,,,,,,
,,60a252f3da4306c3c3de2889,65af5579f3ebe8cc90bc71b7,2024-01-23_08h59.11.962,bars,2023.2.3,Win32,60.24096386,657b66ea316d21385b68909f,,,,,,,,,,,1408.1341,1409.1321,,,1409.632,1409.8816,,89,89,,,,,,,,,,,,,,,,bars/021.png,bars/mask000.png,,,,,,,,,,,,1,2,,,,,,,2,4,2,4,,,,,,,,,,,1409.1321,1409.632,1409.8817,1412.3805,space,2.4855,,1412.3806,66,19,1413.3799,1413.38,1413.4082,,,,0,36,36,36,1,155,70,,,,,,,,
,,60a252f3da4306c3c3de2889,65af5579f3ebe8cc90bc71b7,2024-01-23_08h59.11.962,bars,2023.2.3,Win32,60.24096386,657b66ea316d21385b68909f,,,,,,,,,,,1413.4086,1414.4131,,,1414.9126,1415.1628,,139,139,,,,,,,,,,,,,,,,bars/000.png,bars/mask002.png,,,,,,,,,,,,3,2,,,,,,,4,6,4,4,,,,,,,,,,,1414.4132,1414.9125,1415.1628,1418.0781,space,2.9047,,1418.0781,81,6,1419.0774,1419.0775,1419.1041,,,,0,37,37,37,1,40,145,,,,,,,,
,,60a252f3da4306c3c3de2889,65af5579f3ebe8cc90bc71b7,2024-01-23_08h59.11.962,bars,2023.2.3,Win32,60.24096386,657b66ea316d21385b68909f,,,,,,,,,,,1419.1045,1420.0936,,,1420.5932,1420.8433,,48,48,,,,,,,,,,,,,,,,bars/034.png,bars/mask003.png,,,,,,,,,,,,3,2,,,,,,,2,8,1,7,,,,,,,,,,,1420.0936,1420.5932,1420.8433,1423.1258,space,2.2755,,1423.1258,77,17,1424.1256,1424.1256,1424.1525,,,,0,38,38,38,1,125,65,,,,,,,,
,,60a252f3da4306c3c3de2889,65af5579f3ebe8cc90bc71b7,2024-01-23_08h59.11.962,bars,2023.2.3,Win32,60.24096386,657b66ea316d21385b68909f,,,,,,,,,,,1424.1528,1425.1416,,,1425.6412,1425.8911,,145,145,,,,,,,,,,,,,,,,bars/005.png,bars/mask008.png,,,,,,,,,,,,8,2,,,,,,,4,10,5,10,,,,,,,,,,,1425.1417,1425.6412,1425.8911,1426.8574,space,0.9506,,1426.8575,45,5,1427.8568,1427.8568,1427.8578,,,,0,39,39,39,1,10,140,,,,,,,,
,,60a252f3da4306c3c3de2889,65af5579f3ebe8cc90bc71b7,2024-01-23_08h59.11.962,bars,2023.2.3,Win32,60.24096386,657b66ea316d21385b68909f,,,,,,,,,,,1427.8581,1428.8562,,,1429.3569,1429.606,,25,25,,,,,,,,,,,,,,,,bars/040.png,bars/mask006.png,,,,,,,,,,,,2,2,,,,,,,6,8,7,7,,,,,,,,,,,1428.8563,1429.3568,1429.6061,1433.3046,space,3.6823,,1433.3047,65,20,1434.304,1434.3041,1434.3306,,,,0,40,40,40,1,140,5,,,,,,,,
,,60a252f3da4306c3c3de2889,65af5579f3ebe8cc90bc71b7,2024-01-23_08h59.11.962,bars,2023.2.3,Win32,60.24096386,657b66ea316d21385b68909f,,,,,,,,,,,1434.331,1435.3206,,,1435.8201,1436.0705,,102,102,,,,,,,,,,,,,,,,bars/018.png,bars/mask002.png,,,,,,,,,,,,4,2,,,,,,,4,6,5,7,,,,,,,,,,,1435.3206,1435.8201,1436.0705,1437.7527,space,1.6667,,1437.7528,48,12,1438.7521,1438.7521,1438.7531,,,,0,41,41,41,1,150,90,,,,,,,,
,,60a252f3da4306c3c3de2889,65af5579f3ebe8cc90bc71b7,2024-01-23_08h59.11.962,bars,2023.2.3,Win32,60.24096386,657b66ea316d21385b68909f,,,,,,,,,,,1438.7535,1439.7518,,,1440.2517,1440.5013,,63,63,,,,,,,,,,,,,,,,bars/035.png,bars/mask006.png,,,,,,,,,,,,8,2,,,,,,,6,8,6,9,,,,,,,,,,,1439.7518,1440.2517,1440.5013,1442.6337,space,2.1166,,1442.6338,68,3,1443.6331,1443.6331,1443.6603,,,,0,42,42,42,1,175,60,,,,,,,,
,,60a252f3da4306c3c3de2889,65af5579f3ebe8cc90bc71b7,2024-01-23_08h59.11.962,bars,2023.2.3,Win32,60.24096386,657b66ea316d21385b68909f,,,,,,,,,,,1443.6607,1444.6492,,,1445.1497,1445.3994,,110,110,,,,,,,,,,,,,,,,bars/028.png,bars/mask004.png,,,,,,,,,,,,5,2,,,,,,,8,6,9,7,,,,,,,,,,,1444.6493,1445.1496,1445.3994,1447.5483,space,2.1427,,1447.5483,65,10,1448.5475,1448.5475,1448.5488,,,,0,43,43,43,1,45,120,,,,,,,,
,,60a252f3da4306c3c3de2889,65af5579f3ebe8cc90bc71b7,2024-01-23_08h59.11.962,bars,2023.2.3,Win32,60.24096386,657b66ea316d21385b68909f,,,,,,,,,,,1448.5492,1449.5474,,,1450.047,1450.2969,,83,83,,,,,,,,,,,,,,,,bars/023.png,bars/mask004.png,,,,,,,,,,,,0,2,,,,,,,6,8,5,10,,,,,,,,,,,1449.5475,1450.0469,1450.2969,1453.8121,space,3.5068,,1453.8122,63,32,1454.8116,1454.8116,1454.8395,,,,0,44,44,44,1,20,115,,,,,,,,
,,60a252f3da4306c3c3de2889,65af5579f3ebe8cc90bc71b7,2024-01-23_08h59.11.962,bars,2023.2.3,Win32,60.24096386,657b66ea316d21385b68909f,,,,,,,,,,,1454.8405,1455.8283,,,1456.3276,1456.5777,,24,24,,,,,,,,,,,,,,,,bars/032.png,bars/mask004.png,,,,,,,,,,,,8,2,,,,,,,4,10,4,9,,,,,,,,,,,1455.8283,1456.3276,1456.5777,1458.3267,space,1.7403,,1458.3268,79,4,1459.3262,1459.3262,1459.3528,,,,0,45,45,45,1,125,20,,,,,,,,
,,60a252f3da4306c3c3de2889,65af5579f3ebe8cc90bc71b7,2024-01-23_08h59.11.962,bars,2023.2.3,Win32,60.24096386,657b66ea316d21385b68909f,,,,,,,,,,,1459.3532,1460.3429,,,1460.8423,1461.0917,,62,62,,,,,,,,,,,,,,,,bars/043.png,bars/mask004.png,,,,,,,,,,,,0,1,,,,,,,2,8,3,9,,,,,,,,,,,1460.343,1460.8423,1461.0917,1463.5245,space,2.4181,,1463.5246,32,68,1464.5242,1464.5243,1464.5533,,,,0,46,46,46,1,30,130,,,,,,,,
,,60a252f3da4306c3c3de2889,65af5579f3ebe8cc90bc71b7,2024-01-23_08h59.11.962,bars,2023.2.3,Win32,60.24096386,657b66ea316d21385b68909f,,,,,,,,,,,1464.5538,1465.5572,,,1466.0568,1466.3068,,32,32,,,,,,,,,,,,,,,,bars/016.png,bars/mask002.png,,,,,,,,,,,,3,1,,,,,,,4,6,4,9,,,,,,,,,,,1465.5572,1466.0568,1466.3068,1468.5222,space,2.1997,,1468.5222,8,47,1469.5216,1469.5217,1469.5484,,,,0,47,47,47,1,40,165,,,,,,,,
,,60a252f3da4306c3c3de2889,65af5579f3ebe8cc90bc71b7,2024-01-23_08h59.11.962,bars,2023.2.3,Win32,60.24096386,657b66ea316d21385b68909f,,,,,,,,,,,1469.549,1470.5379,,,1471.0383,1471.2878,,159,-21,,,,,,,,,,,,,,,,bars/034.png,bars/mask006.png,,,,,,,,,,,,0,1,,,,,,,2,8,1,7,,,,,,,,,,,1470.5379,1471.0383,1471.2879,1473.6868,space,2.3838,,1473.6869,34,86,1474.6864,1474.6866,1474.7138,,,,0,48,48,48,1,125,65,,,,,,,,
,,60a252f3da4306c3c3de2889,65af5579f3ebe8cc90bc71b7,2024-01-23_08h59.11.962,bars,2023.2.3,Win32,60.24096386,657b66ea316d21385b68909f,,,,,,,,,,,1474.7147,1475.719,,,1476.2191,1476.4689,,29,29,,,,,,,,,,,,,,,,bars/047.png,bars/mask009.png,,,,,,,,,,,,0,1,,,,,,,0,6,0,6,,,,,,,,,,,1475.719,1476.2191,1476.4689,1478.2013,space,1.7163,,1478.2013,14,41,1479.2007,1479.2007,1479.2292,,,,0,49,49,49,1,15,70,,,,,,,,
,,60a252f3da4306c3c3de2889,65af5579f3ebe8cc90bc71b7,2024-01-23_08h59.11.962,bars,2023.2.3,Win32,60.24096386,657b66ea316d21385b68909f,,,,,,,,,,,,,,,,,,,,,,,,,,,,,,,,,,,,,,,,,,,,,,,,,,,,,,,,,,,,,,,,,,,,,,,,,,,,,,,,,,,,,,,,,,,,,1479.2297,1539.2241,0,3,3,0,1,sequence_tables/blk005.csv
,,60a252f3da4306c3c3de2889,65af5579f3ebe8cc90bc71b7,2024-01-23_08h59.11.962,bars,2023.2.3,Win32,60.24096386,657b66ea316d21385b68909f,,,,,,,,,,,1568.5169,1569.4942,,,1569.9942,1570.2436,,158,-22,,,,,,,,,,,,,,,,bars/040.png,bars/mask001.png,,,,,,,,,,,,4,1,,,,,,,9,4,9,4,,,,,,1539.2521,1568.4779,space,29.2179,,1569.4943,1569.9941,1570.2436,1572.1433,space,1.8911,,1572.1435,18,27,1573.1426,1573.1427,1573.1719,,,,0,0,0,0,1,140,5,,,,,,,,
,,60a252f3da4306c3c3de2889,65af5579f3ebe8cc90bc71b7,2024-01-23_08h59.11.962,bars,2023.2.3,Win32,60.24096386,657b66ea316d21385b68909f,,,,,,,,,,,1573.1724,1574.1752,,,1574.6754,1574.9252,,139,139,,,,,,,,,,,,,,,,bars/034.png,bars/mask005.png,,,,,,,,,,,,5,1,,,,,,,10,6,10,6,,,,,,,,,,,1574.1753,1574.6752,1574.9253,1576.6909,space,1.7498,,1576.6909,14,74,1577.6905,1577.6906,1577.6916,,,,0,1,1,1,1,125,65,,,,,,,,
,,60a252f3da4306c3c3de2889,65af5579f3ebe8cc90bc71b7,2024-01-23_08h59.11.962,bars,2023.2.3,Win32,60.24096386,657b66ea316d21385b68909f,,,,,,,,,,,1577.6921,1578.6898,,,1579.19,1579.4398,,67,67,,,,,,,,,,,,,,,,bars/000.png,bars/mask009.png,,,,,,,,,,,,1,1,,,,,,,8,4,8,5,,,,,,,,,,,1578.6899,1579.1899,1579.4398,1582.6888,space,3.2435,,1582.6888,27,78,1583.688,1583.688,1583.7147,,,,0,2,2,2,1,40,145,,,,,,,,
,,60a252f3da4306c3c3de2889,65af5579f3ebe8cc90bc71b7,2024-01-23_08h59.11.962,bars,2023.2.3,Win32,60.24096386,657b66ea316d21385b68909f,,,,,,,,,,,1583.7152,1584.7037,,,1585.2036,1585.4538,,20,20,,,,,,,,,,,,,,,,bars/035.png,bars/mask008.png,,,,,,,,,,,,1,1,,,,,,,6,6,6,7,,,,,,,,,,,1584.7038,1585.2036,1585.4539,1586.8701,space,1.4026,,1586.8701,25,40,1587.8691,1587.8692,1587.8701,,,,0,3,3,3,1,175,60,,,,,,,,
,,60a252f3da4306c3c3de2889,65af5579f3ebe8cc90bc71b7,2024-01-23_08h59.11.962,bars,2023.2.3,Win32,60.24096386,657b66ea316d21385b68909f,,,,,,,,,,,1587.8706,1588.8685,,,1589.3688,1589.6185,,105,105,,,,,,,,,,,,,,,,bars/002.png,bars/mask005.png,,,,,,,,,,,,3,2,,,,,,,4,8,3,8,,,,,,,,,,,1588.8686,1589.3687,1589.6186,1591.2177,space,1.5926,,1591.2178,25,20,1592.2175,1592.2175,1592.2199,,,,0,4,4,4,1,130,85,,,,,,,,
,,60a252f3da4306c3c3de2889,65af5579f3ebe8cc90bc71b7,2024-01-23_08h59.11.962,bars,2023.2.3,Win32,60.24096386,657b66ea316d21385b68909f,,,,,,,,,,,1592.2205,1593.2167,,,1593.7166,1593.9665,,146,146,,,,,,,,,,,,,,,,bars/018.png,bars/mask006.png,,,,,,,,,,,,1,1,,,,,,,2,10,1,10,,,,,,,,,,,1593.2167,1593.7166,1593.9666,1595.7826,space,1.807,,1595.7827,4,56,1596.7821,1596.7822,1596.8103,,,,0,5,5,5,1,150,90,,,,,,,,
,,60a252f3da4306c3c3de2889,65af5579f3ebe8cc90bc71b7,2024-01-23_08h59.11.962,bars,2023.2.3,Win32,60.24096386,657b66ea316d21385b68909f,,,,,,,,,,,1596.8107,1597.7983,,,1598.2981,1598.5477,,22,22,,,,,,,,,,,,,,,,bars/033.png,bars/mask008.png,,,,,,,,,,,,4,1,,,,,,,4,8,4,8,,,,,,,,,,,1597.7983,1598.2981,1598.5477,1600.464,space,1.9,,1600.464,3,47,1601.4633,1601.4633,1601.4901,,,,0,6,6,6,1,25,155,,,,,,,,
,,60a252f3da4306c3c3de2889,65af5579f3ebe8cc90bc71b7,2024-01-23_08h59.11.962,bars,2023.2.3,Win32,60.24096386,657b66ea316d21385b68909f,,,,,,,,,,,1601.4905,1602.4793,,,1602.9791,1603.2292,,62,62,,,,,,,,,,,,,,,,bars/014.png,bars/mask001.png,,,,,,,,,,,,0,1,,,,,,,2,10,1,10,,,,,,,,,,,1602.4793,1602.9791,1603.2292,1604.9286,space,1.683,,1604.9287,18,62,1605.9277,1605.9277,1605.9288,,,,0,7,7,7,1,80,0,,,,,,,,
,,60a252f3da4306c3c3de2889,65af5579f3ebe8cc90bc71b7,2024-01-23_08h59.11.962,bars,2023.2.3,Win32,60.24096386,657b66ea316d21385b68909f,,,,,,,,,,,1605.9292,1606.9275,,,1607.4276,1607.6769,,33,33,,,,,,,,,,,,,,,,bars/027.png,bars/mask005.png,,,,,,,,,,,,3,2,,,,,,,4,8,4,7,,,,,,,,,,,1606.9275,1607.4275,1607.6769,1609.4933,space,1.8007,,1609.4934,77,17,1610.4923,1610.4924,1610.4947,,,,0,8,8,8,1,110,50,,,,,,,,
,,60a252f3da4306c3c3de2889,65af5579f3ebe8cc90bc71b7,2024-01-23_08h59.11.962,bars,2023.2.3,Win32,60.24096386,657b66ea316d21385b68909f,,,,,,,,,,,1610.4952,1611.4921,,,1611.992,1612.2416,,115,115,,,,,,,,,,,,,,,,bars/003.png,bars/mask006.png,,,,,,,,,,,,1,2,,,,,,,2,6,2,7,,,,,,,,,,,1611.4921,1611.992,1612.2417,1614.6571,space,2.4099,,1614.6572,90,25,1615.6567,1615.6567,1615.6833,,,,0,9,9,9,1,25,140,,,,,,,,
,,60a252f3da4306c3c3de2889,65af5579f3ebe8cc90bc71b7,2024-01-23_08h59.11.962,bars,2023.2.3,Win32,60.24096386,657b66ea316d21385b68909f,,,,,,,,,,,1615.6838,1616.6729,,,1617.1733,1617.4224,,77,77,,,,,,,,,,,,,,,,bars/045.png,bars/mask006.png,,,,,,,,,,,,1,1,,,,,,,4,8,3,7,,,,,,,,,,,1616.673,1617.1732,1617.4225,1618.9894,space,1.5508,,1618.9894,23,67,1619.9886,1619.9886,1619.9913,,,,0,10,10,10,1,100,10,,,,,,,,
,,60a252f3da4306c3c3de2889,65af5579f3ebe8cc90bc71b7,2024-01-23_08h59.11.962,bars,2023.2.3,Win32,60.24096386,657b66ea316d21385b68909f,,,,,,,,,,,1619.9918,1620.9882,,,1621.4881,1621.738,,172,-8,,,,,,,,,,,,,,,,bars/032.png,bars/mask003.png,,,,,,,,,,,,0,2,,,,,,,2,6,1,7,,,,,,,,,,,1620.9882,1621.4881,1621.738,1623.4535,space,1.7052,,1623.4535,47,28,1624.4531,1624.4532,1624.4559,,,,0,11,11,11,1,125,20,,,,,,,,
,,60a252f3da4306c3c3de2889,65af5579f3ebe8cc90bc71b7,2024-01-23_08h59.11.962,bars,2023.2.3,Win32,60.24096386,657b66ea316d21385b68909f,,,,,,,,,,,1624.4563,1625.4527,,,1625.9522,1626.2023,,66,66,,,,,,,,,,,,,,,,bars/019.png,bars/mask001.png,,,,,,,,,,,,1,1,,,,,,,4,4,4,6,,,,,,,,,,,1625.4528,1625.9521,1626.2023,1629.0013,space,2.7837,,1629.0014,21,39,1630.0005,1630.0005,1630.0298,,,,0,12,12,12,1,45,105,,,,,,,,
,,60a252f3da4306c3c3de2889,65af5579f3ebe8cc90bc71b7,2024-01-23_08h59.11.962,bars,2023.2.3,Win32,60.24096386,657b66ea316d21385b68909f,,,,,,,,,,,1630.0302,1631.0334,,,1631.533,1631.7833,,48,48,,,,,,,,,,,,,,,,bars/002.png,bars/mask003.png,,,,,,,,,,,,0,2,,,,,,,2,6,1,6,,,,,,,,,,,1631.0334,1631.5329,1631.7833,1634.0155,space,2.2185,,1634.0156,82,37,1635.0152,1635.0152,1635.0434,,,,0,13,13,13,1,130,85,,,,,,,,
