init_variables.started,init_variables.stopped,participant,session,date,expName,psychopyVersion,OS,frameRate,study_id,instruction_exp.started,instruction_exp.stopped,key_resp_8.keys,key_resp_8.rt,key_resp_8.duration,instruction_single.started,instruction_single.stopped,key_resp_2.keys,key_resp_2.rt,key_resp_2.duration,interval.started,interval.stopped,cue_single.started,cue_single.stopped,mask.started,mask.stopped,ori_response_single.started,res_ori,res,ori_response_single.stopped,key_resp_single.keys,key_resp_single.rt,key_resp_single.duration,disp_single.started,disp_single.stopped,key_resp.keys,key_resp.rt,key_resp.duration,single.thisRepN,single.thisTrialN,single.thisN,single.thisIndex,single.ran,ori,path,mask_path,instruction_bandit.started,instruction_bandit.stopped,key_resp_6.keys,key_resp_6.rt,key_resp_6.duration,cue_bandit.started,cue_bandit.stopped,bandit_res.keys,bandit_res.rt,bandit_res.duration,outcome_bandit.started,rew,action,outcome_bandit.stopped,bandit.thisRepN,bandit.thisTrialN,bandit.thisN,bandit.thisIndex,bandit.ran,actual_rew1,actual_rew2,rew1,rew2,instruction_task.started,instruction_task.stopped,key_resp_7.keys,key_resp_7.rt,key_resp_7.duration,wait_ready.started,wait_ready.stopped,key_resp_3.keys,key_resp_3.rt,key_resp_3.duration,cue.started,cue.stopped,ori_response.started,ori_response.stopped,key_resp_5.keys,key_resp_5.rt,key_resp_5.duration,outcome.started,diff1,diff2,outcome.stopped,disp_outcome_practice.started,disp_outcome_practice.stopped,key_resp_4.keys,key_resp_4.rt,key_resp_4.duration,trials.thisRepN,trials.thisTrialN,trials.thisN,trials.thisIndex,trials.ran,ori1,ori2,break_blk.started,break_blk.stopped,block.thisRepN,block.thisTrialN,block.thisN,block.thisIndex,block.ran,condition_file
0.001,0.001,60d336457da539b0a93cb7d3,65af53a4be6af047326a987b,2024-01-23_07h51.07.800,bars,2023.2.3,Win32,166.6666667,657b66ea316d21385b68909f,,,,,,,,,,,,,,,,,,,,,,,,,,,,,,,,,,,,,,,,,,,,,,,,,,,,,,,,,,,,,,,,,,,,,,,,,,,,,,,,,,,,,,,,,,,,,,,,,,,,
,,60d336457da539b0a93cb7d3,65af53a4be6af047326a987b,2024-01-23_07h51.07.800,bars,2023.2.3,Win32,166.6666667,657b66ea316d21385b68909f,0.001,385.89,y,385.88,,,,,,,,,,,,,,,,,,,,,,,,,,,,,,,,,,,,,,,,,,,,,,,,,,,,,,,,,,,,,,,,,,,,,,,,,,,,,,,,,,,,,,,,,,,,,,,,
,,60d336457da539b0a93cb7d3,65af53a4be6af047326a987b,2024-01-23_07h51.07.800,bars,2023.2.3,Win32,166.6666667,657b66ea316d21385b68909f,,,,,,385.89,400.412,space,14.514,,,,,,,,,,,,,,,,,,,,,,,,,,,,,,,,,,,,,,,,,,,,,,,,,,,,,,,,,,,,,,,,,,,,,,,,,,,,,,,,,,,,,,,,,,,
,,60d336457da539b0a93cb7d3,65af53a4be6af047326a987b,2024-01-23_07h51.07.800,bars,2023.2.3,Win32,166.6666667,657b66ea316d21385b68909f,,,,,,,,,,,400.417,401.411,401.412,401.912,401.912,402.162,402.162,52,52,410.979,space,8.793,,410.979,415.545,space,4.551,,0,0,0,9,1,20,bars/single009.png,bars/mask006.png,,,,,,,,,,,,,,,,,,,,,,,,,,,,,,,,,,,,,,,,,,,,,,,,,,,,,,,,,,,,,,,,
,,60d336457da539b0a93cb7d3,65af53a4be6af047326a987b,2024-01-23_07h51.07.800,bars,2023.2.3,Win32,166.6666667,657b66ea316d21385b68909f,,,,,,,,,,,415.549,416.551,416.551,417.045,417.045,417.294,417.294,164,164,420.528,space,3.217,,420.528,433.727,space,13.182,,0,1,1,0,1,150,bars/single000.png,bars/mask006.png,,,,,,,,,,,,,,,,,,,,,,,,,,,,,,,,,,,,,,,,,,,,,,,,,,,,,,,,,,,,,,,,
,,60d336457da539b0a93cb7d3,65af53a4be6af047326a987b,2024-01-23_07h51.07.800,bars,2023.2.3,Win32,166.6666667,657b66ea316d21385b68909f,,,,,,,,,,,433.731,434.728,434.728,435.227,435.227,435.477,435.477,162,162,439.294,space,3.8,,439.294,442.578,space,3.252,,0,2,2,8,1,160,bars/single008.png,bars/mask004.png,,,,,,,,,,,,,,,,,,,,,,,,,,,,,,,,,,,,,,,,,,,,,,,,,,,,,,,,,,,,,,,,
,,60d336457da539b0a93cb7d3,65af53a4be6af047326a987b,2024-01-23_07h51.07.800,bars,2023.2.3,Win32,166.6666667,657b66ea316d21385b68909f,,,,,,,,,,,442.581,443.577,443.577,444.077,444.077,444.327,444.327,82,82,446.861,space,2.518,,446.861,450.744,space,3.868,,0,3,3,4,1,95,bars/single004.png,bars/mask004.png,,,,,,,,,,,,,,,,,,,,,,,,,,,,,,,,,,,,,,,,,,,,,,,,,,,,,,,,,,,,,,,,
,,60d336457da539b0a93cb7d3,65af53a4be6af047326a987b,2024-01-23_07h51.07.800,bars,2023.2.3,Win32,166.6666667,657b66ea316d21385b68909f,,,,,,,,,,,450.747,451.743,451.743,452.243,452.243,452.493,452.493,41,41,456.677,space,4.167,,456.677,459.644,space,2.95,,0,4,4,7,1,45,bars/single007.png,bars/mask009.png,,,,,,,,,,,,,,,,,,,,,,,,,,,,,,,,,,,,,,,,,,,,,,,,,,,,,,,,,,,,,,,,
,,60d336457da539b0a93cb7d3,65af53a4be6af047326a987b,2024-01-23_07h51.07.800,bars,2023.2.3,Win32,166.6666667,657b66ea316d21385b68909f,,,,,,,,,,,459.644,460.643,460.643,461.144,461.144,461.394,461.394,17,197,464.893,space,3.483,,464.893,530.725,space,65.814,,0,5,5,1,1,20,bars/single001.png,bars/mask006.png,,,,,,,,,,,,,,,,,,,,,,,,,,,,,,,,,,,,,,,,,,,,,,,,,,,,,,,,,,,,,,,,
,,60d336457da539b0a93cb7d3,65af53a4be6af047326a987b,2024-01-23_07h51.07.800,bars,2023.2.3,Win32,166.6666667,657b66ea316d21385b68909f,,,,,,,,,,,530.728,531.724,531.724,532.24,532.24,532.475,532.475,155,155,534.724,space,2.233,,534.724,536.124,space,1.383,,0,6,6,2,1,145,bars/single002.png,bars/mask003.png,,,,,,,,,,,,,,,,,,,,,,,,,,,,,,,,,,,,,,,,,,,,,,,,,,,,,,,,,,,,,,,,
,,60d336457da539b0a93cb7d3,65af53a4be6af047326a987b,2024-01-23_07h51.07.800,bars,2023.2.3,Win32,166.6666667,657b66ea316d21385b68909f,,,,,,,,,,,536.124,537.124,537.124,537.624,537.624,537.874,537.874,20,200,540.624,space,2.733,,540.624,544.991,space,4.35,,0,7,7,3,1,20,bars/single003.png,bars/mask005.png,,,,,,,,,,,,,,,,,,,,,,,,,,,,,,,,,,,,,,,,,,,,,,,,,,,,,,,,,,,,,,,,
,,60d336457da539b0a93cb7d3,65af53a4be6af047326a987b,2024-01-23_07h51.07.800,bars,2023.2.3,Win32,166.6666667,657b66ea316d21385b68909f,,,,,,,,,,,544.994,546.007,546.007,546.507,546.507,546.757,546.757,19,19,550.74,space,3.967,,550.74,552.474,space,1.718,,0,8,8,6,1,175,bars/single006.png,bars/mask005.png,,,,,,,,,,,,,,,,,,,,,,,,,,,,,,,,,,,,,,,,,,,,,,,,,,,,,,,,,,,,,,,,
,,60d336457da539b0a93cb7d3,65af53a4be6af047326a987b,2024-01-23_07h51.07.800,bars,2023.2.3,Win32,166.6666667,657b66ea316d21385b68909f,,,,,,,,,,,552.474,553.473,553.473,553.973,553.973,554.224,554.224,67,67,559.223,space,4.984,,559.223,561.907,space,2.666,,0,9,9,5,1,55,bars/single005.png,bars/mask008.png,,,,,,,,,,,,,,,,,,,,,,,,,,,,,,,,,,,,,,,,,,,,,,,,,,,,,,,,,,,,,,,,
,,60d336457da539b0a93cb7d3,65af53a4be6af047326a987b,2024-01-23_07h51.07.800,bars,2023.2.3,Win32,166.6666667,657b66ea316d21385b68909f,,,,,,,,,,,,,,,,,,,,,,,,,,,,,,,,,,,,,561.907,569.574,space,7.649,,,,,,,,,,,,,,,,,,,,,,,,,,,,,,,,,,,,,,,,,,,,,,,,,,,,,,,,,,,,
,,60d336457da539b0a93cb7d3,65af53a4be6af047326a987b,2024-01-23_07h51.07.800,bars,2023.2.3,Win32,166.6666667,657b66ea316d21385b68909f,,,,,,,,,,,,,,,,,,,,,,,,,,,,,,,,,,,,,,,,,,569.578,570.739,left,1.15,,570.74,9,1,571.739,0,0,0,0,1,9,1,9,2,,,,,,,,,,,,,,,,,,,,,,,,,,,,,,,,,,,,,,,,,
,,60d336457da539b0a93cb7d3,65af53a4be6af047326a987b,2024-01-23_07h51.07.800,bars,2023.2.3,Win32,166.6666667,657b66ea316d21385b68909f,,,,,,,,,,,,,,,,,,,,,,,,,,,,,,,,,,,,,,,,,,571.739,573.006,left,1.25,,573.006,10,1,574.006,0,1,1,1,1,10,0,10,1,,,,,,,,,,,,,,,,,,,,,,,,,,,,,,,,,,,,,,,,,
,,60d336457da539b0a93cb7d3,65af53a4be6af047326a987b,2024-01-23_07h51.07.800,bars,2023.2.3,Win32,166.6666667,657b66ea316d21385b68909f,,,,,,,,,,,,,,,,,,,,,,,,,,,,,,,,,,,,,,,,,,574.006,574.624,left,0.601,,574.624,10,1,575.622,0,2,2,2,1,10,2,10,2,,,,,,,,,,,,,,,,,,,,,,,,,,,,,,,,,,,,,,,,,
,,60d336457da539b0a93cb7d3,65af53a4be6af047326a987b,2024-01-23_07h51.07.800,bars,2023.2.3,Win32,166.6666667,657b66ea316d21385b68909f,,,,,,,,,,,,,,,,,,,,,,,,,,,,,,,,,,,,,,,,,,575.622,575.989,left,0.35,,575.989,7,1,576.989,0,3,3,3,1,8,4,7,3,,,,,,,,,,,,,,,,,,,,,,,,,,,,,,,,,,,,,,,,,
,,60d336457da539b0a93cb7d3,65af53a4be6af047326a987b,2024-01-23_07h51.07.800,bars,2023.2.3,Win32,166.6666667,657b66ea316d21385b68909f,,,,,,,,,,,,,,,,,,,,,,,,,,,,,,,,,,,,,,,,,,576.99,578.723,right,1.717,,578.723,1,2,579.722,0,4,4,4,1,6,2,5,1,,,,,,,,,,,,,,,,,,,,,,,,,,,,,,,,,,,,,,,,,
,,60d336457da539b0a93cb7d3,65af53a4be6af047326a987b,2024-01-23_07h51.07.800,bars,2023.2.3,Win32,166.6666667,657b66ea316d21385b68909f,,,,,,,,,,,,,,,,,,,,,,,,,,,,,,,,,,,,,,,,,,579.726,580.189,right,0.45,,580.189,4,2,581.189,0,5,5,5,1,4,4,4,4,,,,,,,,,,,,,,,,,,,,,,,,,,,,,,,,,,,,,,,,,
,,60d336457da539b0a93cb7d3,65af53a4be6af047326a987b,2024-01-23_07h51.07.800,bars,2023.2.3,Win32,166.6666667,657b66ea316d21385b68909f,,,,,,,,,,,,,,,,,,,,,,,,,,,,,,,,,,,,,,,,,,581.189,581.489,right,0.283,,581.489,2,2,582.489,0,6,6,6,1,2,2,1,2,,,,,,,,,,,,,,,,,,,,,,,,,,,,,,,,,,,,,,,,,
,,60d336457da539b0a93cb7d3,65af53a4be6af047326a987b,2024-01-23_07h51.07.800,bars,2023.2.3,Win32,166.6666667,657b66ea316d21385b68909f,,,,,,,,,,,,,,,,,,,,,,,,,,,,,,,,,,,,,,,,,,582.489,583.206,right,0.7,,583.206,1,2,584.205,0,7,7,7,1,0,0,0,1,,,,,,,,,,,,,,,,,,,,,,,,,,,,,,,,,,,,,,,,,
,,60d336457da539b0a93cb7d3,65af53a4be6af047326a987b,2024-01-23_07h51.07.800,bars,2023.2.3,Win32,166.6666667,657b66ea316d21385b68909f,,,,,,,,,,,,,,,,,,,,,,,,,,,,,,,,,,,,,,,,,,584.205,585.189,left,0.967,,585.189,1,1,586.189,0,8,8,8,1,0,2,1,0,,,,,,,,,,,,,,,,,,,,,,,,,,,,,,,,,,,,,,,,,
,,60d336457da539b0a93cb7d3,65af53a4be6af047326a987b,2024-01-23_07h51.07.800,bars,2023.2.3,Win32,166.6666667,657b66ea316d21385b68909f,,,,,,,,,,,,,,,,,,,,,,,,,,,,,,,,,,,,,,,,,,586.189,586.239,right,0.033,,586.239,3,2,587.239,0,9,9,9,1,2,4,2,3,,,,,,,,,,,,,,,,,,,,,,,,,,,,,,,,,,,,,,,,,
,,60d336457da539b0a93cb7d3,65af53a4be6af047326a987b,2024-01-23_07h51.07.800,bars,2023.2.3,Win32,166.6666667,657b66ea316d21385b68909f,,,,,,,,,,,,,,,,,,,,,,,,,,,,,,,,,,,,,,,,,,587.239,587.256,left,0.001,,587.256,0,1,588.255,0,10,10,10,1,0,2,0,3,,,,,,,,,,,,,,,,,,,,,,,,,,,,,,,,,,,,,,,,,
,,60d336457da539b0a93cb7d3,65af53a4be6af047326a987b,2024-01-23_07h51.07.800,bars,2023.2.3,Win32,166.6666667,657b66ea316d21385b68909f,,,,,,,,,,,,,,,,,,,,,,,,,,,,,,,,,,,,,,,,,,588.255,588.872,left,0.601,,588.872,0,1,589.856,0,11,11,11,1,0,4,0,3,,,,,,,,,,,,,,,,,,,,,,,,,,,,,,,,,,,,,,,,,
,,60d336457da539b0a93cb7d3,65af53a4be6af047326a987b,2024-01-23_07h51.07.800,bars,2023.2.3,Win32,166.6666667,657b66ea316d21385b68909f,,,,,,,,,,,,,,,,,,,,,,,,,,,,,,,,,,,,,,,,,,589.856,590.223,right,0.351,,590.223,6,2,591.205,0,12,12,12,1,2,6,1,6,,,,,,,,,,,,,,,,,,,,,,,,,,,,,,,,,,,,,,,,,
,,60d336457da539b0a93cb7d3,65af53a4be6af047326a987b,2024-01-23_07h51.07.800,bars,2023.2.3,Win32,166.6666667,657b66ea316d21385b68909f,,,,,,,,,,,,,,,,,,,,,,,,,,,,,,,,,,,,,,,,,,591.206,591.556,right,0.334,,591.556,3,2,592.556,0,13,13,13,1,0,4,1,3,,,,,,,,,,,,,,,,,,,,,,,,,,,,,,,,,,,,,,,,,
,,60d336457da539b0a93cb7d3,65af53a4be6af047326a987b,2024-01-23_07h51.07.800,bars,2023.2.3,Win32,166.6666667,657b66ea316d21385b68909f,,,,,,,,,,,,,,,,,,,,,,,,,,,,,,,,,,,,,,,,,,592.556,593.306,right,0.734,,593.306,7,2,594.305,0,14,14,14,1,2,6,2,7,,,,,,,,,,,,,,,,,,,,,,,,,,,,,,,,,,,,,,,,,
,,60d336457da539b0a93cb7d3,65af53a4be6af047326a987b,2024-01-23_07h51.07.800,bars,2023.2.3,Win32,166.6666667,657b66ea316d21385b68909f,,,,,,,,,,,,,,,,,,,,,,,,,,,,,,,,,,,,,,,,,,594.306,594.755,right,0.433,,594.755,9,2,595.755,0,15,15,15,1,4,8,3,9,,,,,,,,,,,,,,,,,,,,,,,,,,,,,,,,,,,,,,,,,
,,60d336457da539b0a93cb7d3,65af53a4be6af047326a987b,2024-01-23_07h51.07.800,bars,2023.2.3,Win32,166.6666667,657b66ea316d21385b68909f,,,,,,,,,,,,,,,,,,,,,,,,,,,,,,,,,,,,,,,,,,595.755,596.089,right,0.318,,596.089,7,2,597.088,0,16,16,16,1,6,6,7,7,,,,,,,,,,,,,,,,,,,,,,,,,,,,,,,,,,,,,,,,,
,,60d336457da539b0a93cb7d3,65af53a4be6af047326a987b,2024-01-23_07h51.07.800,bars,2023.2.3,Win32,166.6666667,657b66ea316d21385b68909f,,,,,,,,,,,,,,,,,,,,,,,,,,,,,,,,,,,,,,,,,,597.089,597.489,right,0.384,,597.489,5,2,598.489,0,17,17,17,1,8,4,9,5,,,,,,,,,,,,,,,,,,,,,,,,,,,,,,,,,,,,,,,,,
,,60d336457da539b0a93cb7d3,65af53a4be6af047326a987b,2024-01-23_07h51.07.800,bars,2023.2.3,Win32,166.6666667,657b66ea316d21385b68909f,,,,,,,,,,,,,,,,,,,,,,,,,,,,,,,,,,,,,,,,,,598.489,599.055,right,0.55,,599.055,1,2,600.055,0,18,18,18,1,6,2,5,1,,,,,,,,,,,,,,,,,,,,,,,,,,,,,,,,,,,,,,,,,
,,60d336457da539b0a93cb7d3,65af53a4be6af047326a987b,2024-01-23_07h51.07.800,bars,2023.2.3,Win32,166.6666667,657b66ea316d21385b68909f,,,,,,,,,,,,,,,,,,,,,,,,,,,,,,,,,,,,,,,,,,600.055,600.422,left,0.35,,600.422,7,1,601.406,0,19,19,19,1,8,0,7,0,,,,,,,,,,,,,,,,,,,,,,,,,,,,,,,,,,,,,,,,,
,,60d336457da539b0a93cb7d3,65af53a4be6af047326a987b,2024-01-23_07h51.07.800,bars,2023.2.3,Win32,166.6666667,657b66ea316d21385b68909f,,,,,,,,,,,,,,,,,,,,,,,,,,,,,,,,,,,,,,,,,,,,,,,,,,,,,,,,,,,,601.406,608.988,space,7.55,,,,,,,,,,,,,,,,,,,,,,,,,,,,,,,,,,,,,
,,60d336457da539b0a93cb7d3,65af53a4be6af047326a987b,2024-01-23_07h51.07.800,bars,2023.2.3,Win32,166.6666667,657b66ea316d21385b68909f,,,,,,,,,,,609.89,610.871,,,611.372,611.622,,139,139,,,,,,,,,,,,,,,,bars/018.png,bars/mask003.png,,,,,,,,,,,,4,1,,,,,,,8,3,7,2,,,,,,608.993,609.889,space,0.884,,610.872,611.372,611.622,617.221,space,5.584,,617.221,11,49,618.221,618.222,630.571,space,12.333,,0,0,0,0,1,150,90,,,,,,,,
,,60d336457da539b0a93cb7d3,65af53a4be6af047326a987b,2024-01-23_07h51.07.800,bars,2023.2.3,Win32,166.6666667,657b66ea316d21385b68909f,,,,,,,,,,,630.575,631.57,,,632.07,632.321,,99,99,,,,,,,,,,,,,,,,bars/006.png,bars/mask001.png,,,,,,,,,,,,4,2,,,,,,,6,5,6,4,,,,,,,,,,,631.57,632.07,632.321,657.637,space,25.301,,657.637,64,1,658.637,658.637,696.835,space,38.182,,0,1,1,1,1,35,100,,,,,,,,
,,60d336457da539b0a93cb7d3,65af53a4be6af047326a987b,2024-01-23_07h51.07.800,bars,2023.2.3,Win32,166.6666667,657b66ea316d21385b68909f,,,,,,,,,,,696.835,697.835,,,698.335,698.585,,65,65,,,,,,,,,,,,,,,,bars/010.png,bars/mask007.png,,,,,,,,,,,,2,2,,,,,,,8,3,8,3,,,,,,,,,,,697.835,698.335,698.585,700.569,space,1.968,,700.569,80,10,701.568,701.568,707.702,space,6.118,,0,2,2,2,1,165,55,,,,,,,,
,,60d336457da539b0a93cb7d3,65af53a4be6af047326a987b,2024-01-23_07h51.07.800,bars,2023.2.3,Win32,166.6666667,657b66ea316d21385b68909f,,,,,,,,,,,707.705,708.702,,,709.202,709.451,,38,38,,,,,,,,,,,,,,,,bars/004.png,bars/mask009.png,,,,,,,,,,,,3,1,,,,,,,6,5,5,5,,,,,,,,,,,708.702,709.201,709.451,711.501,space,2.033,,711.501,13,87,712.502,712.502,715.268,space,2.751,,0,3,3,3,1,25,125,,,,,,,,
,,60d336457da539b0a93cb7d3,65af53a4be6af047326a987b,2024-01-23_07h51.07.800,bars,2023.2.3,Win32,166.6666667,657b66ea316d21385b68909f,,,,,,,,,,,715.272,716.267,,,716.768,717.017,,109,109,,,,,,,,,,,,,,,,bars/031.png,bars/mask006.png,,,,,,,,,,,,6,1,,,,,,,8,3,9,3,,,,,,,,,,,716.267,716.768,717.017,720.134,space,3.1,,720.134,11,74,721.134,721.134,723.718,space,2.567,,0,4,4,4,1,120,35,,,,,,,,
,,60d336457da539b0a93cb7d3,65af53a4be6af047326a987b,2024-01-23_07h51.07.800,bars,2023.2.3,Win32,166.6666667,657b66ea316d21385b68909f,,,,,,,,,,,723.718,724.718,,,725.217,725.467,,140,140,,,,,,,,,,,,,,,,bars/003.png,bars/mask003.png,,,,,,,,,,,,2,2,,,,,,,6,1,6,2,,,,,,,,,,,724.718,725.217,725.467,728.1,space,2.617,,728.1,65,0,729.101,729.101,735.584,space,6.467,,0,5,5,5,1,25,140,,,,,,,,
,,60d336457da539b0a93cb7d3,65af53a4be6af047326a987b,2024-01-23_07h51.07.800,bars,2023.2.3,Win32,166.6666667,657b66ea316d21385b68909f,,,,,,,,,,,735.588,736.584,,,737.084,737.334,,67,67,,,,,,,,,,,,,,,,bars/044.png,bars/mask000.png,,,,,,,,,,,,2,1,,,,,,,4,3,3,3,,,,,,,,,,,736.584,737.084,737.334,739.367,space,2.017,,739.367,8,88,740.367,740.367,743.385,space,3.001,,0,6,6,6,1,75,155,,,,,,,,
,,60d336457da539b0a93cb7d3,65af53a4be6af047326a987b,2024-01-23_07h51.07.800,bars,2023.2.3,Win32,166.6666667,657b66ea316d21385b68909f,,,,,,,,,,,743.388,744.383,,,744.884,745.133,,85,85,,,,,,,,,,,,,,,,bars/027.png,bars/mask008.png,,,,,,,,,,,,1,1,,,,,,,6,1,7,1,,,,,,,,,,,744.383,744.884,745.134,749.2,space,4.05,,749.2,25,35,750.2,750.2,765.649,space,15.432,,0,7,7,7,1,110,50,,,,,,,,
,,60d336457da539b0a93cb7d3,65af53a4be6af047326a987b,2024-01-23_07h51.07.800,bars,2023.2.3,Win32,166.6666667,657b66ea316d21385b68909f,,,,,,,,,,,765.653,766.649,,,767.15,767.399,,132,132,,,,,,,,,,,,,,,,bars/032.png,bars/mask003.png,,,,,,,,,,,,7,1,,,,,,,8,3,9,4,,,,,,,,,,,766.649,767.15,767.399,769.9,space,2.485,,769.9,7,68,770.899,770.899,772.918,space,2.002,,0,8,8,8,1,125,20,,,,,,,,
,,60d336457da539b0a93cb7d3,65af53a4be6af047326a987b,2024-01-23_07h51.07.800,bars,2023.2.3,Win32,166.6666667,657b66ea316d21385b68909f,,,,,,,,,,,772.918,773.916,,,774.415,774.666,,42,42,,,,,,,,,,,,,,,,bars/009.png,bars/mask005.png,,,,,,,,,,,,1,1,,,,,,,10,1,8,1,,,,,,,,,,,773.916,774.415,774.666,776.549,space,1.867,,776.549,27,63,777.549,777.549,779.399,space,1.833,,0,9,9,9,1,15,105,,,,,,,,
,,60d336457da539b0a93cb7d3,65af53a4be6af047326a987b,2024-01-23_07h51.07.800,bars,2023.2.3,Win32,166.6666667,657b66ea316d21385b68909f,,,,,,,,,,,779.399,780.399,,,780.899,781.165,,151,151,,,,,,,,,,,,,,,,bars/044.png,bars/mask007.png,,,,,,,,,,,,1,2,,,,,,,8,3,7,1,,,,,,,,,,,780.399,780.899,781.165,786.099,space,4.918,,786.099,76,4,787.098,787.098,788.665,space,1.55,,0,10,10,10,1,75,155,,,,,,,,
,,60d336457da539b0a93cb7d3,65af53a4be6af047326a987b,2024-01-23_07h51.07.800,bars,2023.2.3,Win32,166.6666667,657b66ea316d21385b68909f,,,,,,,,,,,788.666,789.665,,,790.148,790.398,,50,50,,,,,,,,,,,,,,,,bars/041.png,bars/mask000.png,,,,,,,,,,,,0,1,,,,,,,10,1,8,2,,,,,,,,,,,789.665,790.148,790.398,793.182,space,2.767,,793.182,30,35,794.181,794.181,795.332,space,1.134,,0,11,11,11,1,20,85,,,,,,,,
,,60d336457da539b0a93cb7d3,65af53a4be6af047326a987b,2024-01-23_07h51.07.800,bars,2023.2.3,Win32,166.6666667,657b66ea316d21385b68909f,,,,,,,,,,,795.332,796.348,,,796.848,797.098,,121,-59,,,,,,,,,,,,,,,,bars/015.png,bars/mask002.png,,,,,,,,,,,,6,1,,,,,,,10,0,10,0,,,,,,,,,,,796.348,796.848,797.098,800.848,space,3.734,,800.848,11,39,801.848,801.848,802.848,space,0.984,,0,12,12,12,1,110,160,,,,,,,,
,,60d336457da539b0a93cb7d3,65af53a4be6af047326a987b,2024-01-23_07h51.07.800,bars,2023.2.3,Win32,166.6666667,657b66ea316d21385b68909f,,,,,,,,,,,802.848,803.848,,,804.348,804.598,,140,140,,,,,,,,,,,,,,,,bars/018.png,bars/mask000.png,,,,,,,,,,,,6,1,,,,,,,8,2,9,2,,,,,,,,,,,803.848,804.348,804.598,808.648,space,4.034,,808.648,10,50,809.648,809.648,811.665,space,2,,0,13,13,13,1,150,90,,,,,,,,
,,60d336457da539b0a93cb7d3,65af53a4be6af047326a987b,2024-01-23_07h51.07.800,bars,2023.2.3,Win32,166.6666667,657b66ea316d21385b68909f,,,,,,,,,,,811.665,812.664,,,813.165,813.414,,67,67,,,,,,,,,,,,,,,,bars/029.png,bars/mask005.png,,,,,,,,,,,,2,2,,,,,,,10,4,8,6,,,,,,,,,,,812.664,813.165,813.414,818.431,space,5.016,,818.431,23,22,819.431,819.431,825.58,space,6.133,,0,14,14,14,1,90,45,,,,,,,,
,,60d336457da539b0a93cb7d3,65af53a4be6af047326a987b,2024-01-23_07h51.07.800,bars,2023.2.3,Win32,166.6666667,657b66ea316d21385b68909f,,,,,,,,,,,825.584,826.58,,,827.08,827.331,,89,89,,,,,,,,,,,,,,,,bars/032.png,bars/mask003.png,,,,,,,,,,,,0,1,,,,,,,8,6,8,6,,,,,,,,,,,826.58,827.08,827.331,830.498,space,3.151,,830.498,36,69,831.497,831.497,835.43,space,3.916,,0,15,15,15,1,125,20,,,,,,,,
,,60d336457da539b0a93cb7d3,65af53a4be6af047326a987b,2024-01-23_07h51.07.800,bars,2023.2.3,Win32,166.6666667,657b66ea316d21385b68909f,,,,,,,,,,,835.434,836.43,,,836.914,837.164,,77,77,,,,,,,,,,,,,,,,bars/022.png,bars/mask004.png,,,,,,,,,,,,4,1,,,,,,,10,8,10,9,,,,,,,,,,,836.43,836.914,837.164,840.33,space,3.15,,840.33,18,57,841.33,841.33,846.464,space,5.117,,0,16,16,16,1,95,20,,,,,,,,
,,60d336457da539b0a93cb7d3,65af53a4be6af047326a987b,2024-01-23_07h51.07.800,bars,2023.2.3,Win32,166.6666667,657b66ea316d21385b68909f,,,,,,,,,,,846.467,847.463,,,847.963,848.213,,156,-24,,,,,,,,,,,,,,,,bars/033.png,bars/mask002.png,,,,,,,,,,,,10,2,,,,,,,10,10,10,10,,,,,,,,,,,847.463,847.963,848.213,851.18,space,2.951,,851.18,49,1,852.179,852.179,855.196,space,3,,0,17,17,17,1,25,155,,,,,,,,
,,60d336457da539b0a93cb7d3,65af53a4be6af047326a987b,2024-01-23_07h51.07.800,bars,2023.2.3,Win32,166.6666667,657b66ea316d21385b68909f,,,,,,,,,,,855.2,856.196,,,856.696,856.963,,144,144,,,,,,,,,,,,,,,,bars/044.png,bars/mask007.png,,,,,,,,,,,,6,2,,,,,,,8,8,9,9,,,,,,,,,,,856.196,856.696,856.963,859.231,space,2.252,,859.231,69,11,860.23,860.23,860.797,space,0.551,,0,18,18,18,1,75,155,,,,,,,,
,,60d336457da539b0a93cb7d3,65af53a4be6af047326a987b,2024-01-23_07h51.07.800,bars,2023.2.3,Win32,166.6666667,657b66ea316d21385b68909f,,,,,,,,,,,860.797,861.796,,,862.28,862.529,,150,150,,,,,,,,,,,,,,,,bars/044.png,bars/mask004.png,,,,,,,,,,,,8,2,,,,,,,6,10,5,10,,,,,,,,,,,861.796,862.28,862.529,864.046,space,1.5,,864.046,75,5,865.046,865.046,865.913,space,0.85,,0,19,19,19,1,75,155,,,,,,,,
,,60d336457da539b0a93cb7d3,65af53a4be6af047326a987b,2024-01-23_07h51.07.800,bars,2023.2.3,Win32,166.6666667,657b66ea316d21385b68909f,,,,,,,,,,,865.913,866.912,,,867.413,867.663,,70,70,,,,,,,,,,,,,,,,bars/042.png,bars/mask008.png,,,,,,,,,,,,7,2,,,,,,,8,10,7,8,,,,,,,,,,,866.912,867.413,867.663,870.146,space,2.467,,870.146,75,5,871.162,871.162,872.328,space,1.149,,0,20,20,20,1,145,75,,,,,,,,
,,60d336457da539b0a93cb7d3,65af53a4be6af047326a987b,2024-01-23_07h51.07.800,bars,2023.2.3,Win32,166.6666667,657b66ea316d21385b68909f,,,,,,,,,,,872.329,873.329,,,873.829,874.079,,46,46,,,,,,,,,,,,,,,,bars/031.png,bars/mask005.png,,,,,,,,,,,,5,2,,,,,,,6,8,5,8,,,,,,,,,,,873.329,873.829,874.079,876.746,space,2.651,,876.746,74,11,877.746,877.746,878.079,space,0.317,,0,21,21,21,1,120,35,,,,,,,,
,,60d336457da539b0a93cb7d3,65af53a4be6af047326a987b,2024-01-23_07h51.07.800,bars,2023.2.3,Win32,166.6666667,657b66ea316d21385b68909f,,,,,,,,,,,878.079,879.079,,,879.579,879.829,,113,113,,,,,,,,,,,,,,,,bars/009.png,bars/mask005.png,,,,,,,,,,,,7,2,,,,,,,4,10,3,10,,,,,,,,,,,879.079,879.579,879.829,881.113,space,1.266,,881.113,82,8,882.112,882.112,883.879,space,1.75,,0,22,22,22,1,15,105,,,,,,,,
,,60d336457da539b0a93cb7d3,65af53a4be6af047326a987b,2024-01-23_07h51.07.800,bars,2023.2.3,Win32,166.6666667,657b66ea316d21385b68909f,,,,,,,,,,,883.879,884.879,,,885.379,885.628,,54,54,,,,,,,,,,,,,,,,bars/007.png,bars/mask008.png,,,,,,,,,,,,10,2,,,,,,,2,10,2,10,,,,,,,,,,,884.879,885.379,885.628,889.163,space,3.517,,889.163,59,1,890.162,890.162,892.295,space,2.117,,0,23,23,23,1,175,55,,,,,,,,
,,60d336457da539b0a93cb7d3,65af53a4be6af047326a987b,2024-01-23_07h51.07.800,bars,2023.2.3,Win32,166.6666667,657b66ea316d21385b68909f,,,,,,,,,,,892.296,893.295,,,893.812,894.045,,61,61,,,,,,,,,,,,,,,,bars/010.png,bars/mask001.png,,,,,,,,,,,,6,2,,,,,,,0,8,0,8,,,,,,,,,,,893.295,893.812,894.045,894.778,space,0.717,,894.778,76,6,895.779,895.779,895.928,space,0.133,,0,24,24,24,1,165,55,,,,,,,,
,,60d336457da539b0a93cb7d3,65af53a4be6af047326a987b,2024-01-23_07h51.07.800,bars,2023.2.3,Win32,166.6666667,657b66ea316d21385b68909f,,,,,,,,,,,895.928,896.928,,,897.428,897.678,,76,256,,,,,,,,,,,,,,,,bars/001.png,bars/mask000.png,,,,,,,,,,,,3,2,,,,,,,2,6,3,4,,,,,,,,,,,896.928,897.428,897.678,902.228,space,4.534,,902.228,54,9,903.228,903.228,903.428,space,0.184,,0,25,25,25,1,130,85,,,,,,,,
,,60d336457da539b0a93cb7d3,65af53a4be6af047326a987b,2024-01-23_07h51.07.800,bars,2023.2.3,Win32,166.6666667,657b66ea316d21385b68909f,,,,,,,,,,,903.428,904.428,,,904.928,905.178,,83,83,,,,,,,,,,,,,,,,bars/012.png,bars/mask008.png,,,,,,,,,,,,0,1,,,,,,,0,8,0,6,,,,,,,,,,,904.428,904.928,905.178,907.311,space,2.117,,907.311,7,68,908.311,908.311,909.712,space,1.385,,0,26,26,26,1,90,15,,,,,,,,
,,60d336457da539b0a93cb7d3,65af53a4be6af047326a987b,2024-01-23_07h51.07.800,bars,2023.2.3,Win32,166.6666667,657b66ea316d21385b68909f,,,,,,,,,,,909.712,910.711,,,911.211,911.461,,16,16,,,,,,,,,,,,,,,,bars/013.png,bars/mask000.png,,,,,,,,,,,,7,2,,,,,,,2,10,4,9,,,,,,,,,,,910.711,911.211,911.461,914.446,space,2.968,,914.446,59,6,915.432,915.432,917.728,space,2.268,,0,27,27,27,1,75,10,,,,,,,,
,,60d336457da539b0a93cb7d3,65af53a4be6af047326a987b,2024-01-23_07h51.07.800,bars,2023.2.3,Win32,166.6666667,657b66ea316d21385b68909f,,,,,,,,,,,917.731,918.727,,,919.228,919.477,,153,-27,,,,,,,,,,,,,,,,bars/044.png,bars/mask005.png,,,,,,,,,,,,8,2,,,,,,,0,8,0,9,,,,,,,,,,,918.727,919.228,919.477,921.91,space,2.416,,921.91,78,2,922.91,922.91,924.194,space,1.267,,0,28,28,28,1,75,155,,,,,,,,
,,60d336457da539b0a93cb7d3,65af53a4be6af047326a987b,2024-01-23_07h51.07.800,bars,2023.2.3,Win32,166.6666667,657b66ea316d21385b68909f,,,,,,,,,,,924.194,925.194,,,925.694,925.944,,115,-65,,,,,,,,,,,,,,,,bars/005.png,bars/mask008.png,,,,,,,,,,,,2,2,,,,,,,0,10,0,10,,,,,,,,,,,925.194,925.694,925.944,929.044,space,3.084,,929.044,75,25,930.044,930.044,933.094,space,3.033,,0,29,29,29,1,10,140,,,,,,,,
,,60d336457da539b0a93cb7d3,65af53a4be6af047326a987b,2024-01-23_07h51.07.800,bars,2023.2.3,Win32,166.6666667,657b66ea316d21385b68909f,,,,,,,,,,,933.094,934.094,,,934.593,934.844,,101,101,,,,,,,,,,,,,,,,bars/046.png,bars/mask007.png,,,,,,,,,,,,4,2,,,,,,,2,8,0,9,,,,,,,,,,,934.094,934.593,934.844,937.244,space,2.383,,937.244,54,16,938.244,938.244,939.21,space,0.95,,0,30,30,30,1,155,85,,,,,,,,
,,60d336457da539b0a93cb7d3,65af53a4be6af047326a987b,2024-01-23_07h51.07.800,bars,2023.2.3,Win32,166.6666667,657b66ea316d21385b68909f,,,,,,,,,,,939.211,940.21,,,940.71,940.96,,13,13,,,,,,,,,,,,,,,,bars/036.png,bars/mask002.png,,,,,,,,,,,,4,2,,,,,,,0,6,1,5,,,,,,,,,,,940.21,940.71,940.96,942.877,space,1.901,,942.877,48,7,943.876,943.876,945.21,space,1.317,,0,31,31,31,1,145,20,,,,,,,,
,,60d336457da539b0a93cb7d3,65af53a4be6af047326a987b,2024-01-23_07h51.07.800,bars,2023.2.3,Win32,166.6666667,657b66ea316d21385b68909f,,,,,,,,,,,945.21,946.21,,,946.71,946.96,,115,115,,,,,,,,,,,,,,,,bars/005.png,bars/mask008.png,,,,,,,,,,,,0,2,,,,,,,2,4,2,3,,,,,,,,,,,946.21,946.71,946.96,949.793,space,2.817,,949.793,75,25,950.792,950.792,951.893,space,1.084,,0,32,32,32,1,10,140,,,,,,,,
,,60d336457da539b0a93cb7d3,65af53a4be6af047326a987b,2024-01-23_07h51.07.800,bars,2023.2.3,Win32,166.6666667,657b66ea316d21385b68909f,,,,,,,,,,,951.894,952.893,,,953.41,953.659,,125,125,,,,,,,,,,,,,,,,bars/025.png,bars/mask005.png,,,,,,,,,,,,1,1,,,,,,,4,2,4,2,,,,,,,,,,,952.893,953.41,953.659,956.043,space,2.367,,956.043,20,85,957.042,957.042,958.276,space,1.217,,0,33,33,33,1,105,40,,,,,,,,
,,60d336457da539b0a93cb7d3,65af53a4be6af047326a987b,2024-01-23_07h51.07.800,bars,2023.2.3,Win32,166.6666667,657b66ea316d21385b68909f,,,,,,,,,,,958.277,959.276,,,959.776,960.026,,107,107,,,,,,,,,,,,,,,,bars/039.png,bars/mask003.png,,,,,,,,,,,,1,2,,,,,,,6,0,5,1,,,,,,,,,,,959.276,959.776,960.026,962.909,space,2.867,,962.909,68,2,963.909,963.909,965.092,space,1.166,,0,34,34,34,1,175,105,,,,,,,,
,,60d336457da539b0a93cb7d3,65af53a4be6af047326a987b,2024-01-23_07h51.07.800,bars,2023.2.3,Win32,166.6666667,657b66ea316d21385b68909f,,,,,,,,,,,965.093,966.092,,,966.592,966.825,,53,53,,,,,,,,,,,,,,,,bars/016.png,bars/mask009.png,,,,,,,,,,,,1,1,,,,,,,4,2,2,4,,,,,,,,,,,966.092,966.592,966.825,970.359,space,3.517,,970.359,13,68,971.359,971.359,972.276,space,0.901,,0,35,35,35,1,40,165,,,,,,,,
,,60d336457da539b0a93cb7d3,65af53a4be6af047326a987b,2024-01-23_07h51.07.800,bars,2023.2.3,Win32,166.6666667,657b66ea316d21385b68909f,,,,,,,,,,,972.276,973.275,,,973.776,974.026,,39,219,,,,,,,,,,,,,,,,bars/000.png,bars/mask003.png,,,,,,,,,,,,2,1,,,,,,,2,4,2,4,,,,,,,,,,,973.275,973.776,974.026,977.709,space,3.667,,977.709,1,74,978.709,978.709,979.842,space,1.116,,0,36,36,36,1,40,145,,,,,,,,
,,60d336457da539b0a93cb7d3,65af53a4be6af047326a987b,2024-01-23_07h51.07.800,bars,2023.2.3,Win32,166.6666667,657b66ea316d21385b68909f,,,,,,,,,,,979.843,980.826,,,981.326,981.563,,158,158,,,,,,,,,,,,,,,,bars/008.png,bars/mask009.png,,,,,,,,,,,,1,2,,,,,,,4,2,4,3,,,,,,,,,,,980.826,981.326,981.563,983.192,space,1.6,,983.192,48,22,984.192,984.192,985.142,space,0.933,,0,37,37,37,1,110,0,,,,,,,,
,,60d336457da539b0a93cb7d3,65af53a4be6af047326a987b,2024-01-23_07h51.07.800,bars,2023.2.3,Win32,166.6666667,657b66ea316d21385b68909f,,,,,,,,,,,985.142,986.141,,,986.641,986.874,,103,103,,,,,,,,,,,,,,,,bars/018.png,bars/mask007.png,,,,,,,,,,,,3,2,,,,,,,6,4,6,5,,,,,,,,,,,986.141,986.641,986.874,988.775,space,1.884,,988.776,47,13,989.775,989.775,990.575,space,0.783,,0,38,38,38,1,150,90,,,,,,,,
,,60d336457da539b0a93cb7d3,65af53a4be6af047326a987b,2024-01-23_07h51.07.800,bars,2023.2.3,Win32,166.6666667,657b66ea316d21385b68909f,,,,,,,,,,,990.575,991.575,,,992.075,992.325,,90,90,,,,,,,,,,,,,,,,bars/009.png,bars/mask001.png,,,,,,,,,,,,4,2,,,,,,,4,6,6,7,,,,,,,,,,,991.575,992.075,992.325,994.008,space,1.667,,994.008,75,15,995.008,995.008,995.341,space,0.317,,0,39,39,39,1,15,105,,,,,,,,
,,60d336457da539b0a93cb7d3,65af53a4be6af047326a987b,2024-01-23_07h51.07.800,bars,2023.2.3,Win32,166.6666667,657b66ea316d21385b68909f,,,,,,,,,,,995.342,996.342,,,996.841,997.092,,163,163,,,,,,,,,,,,,,,,bars/014.png,bars/mask005.png,,,,,,,,,,,,2,2,,,,,,,6,4,7,4,,,,,,,,,,,996.342,996.841,997.092,998.858,space,1.75,,998.858,83,17,999.875,999.875,1000.442,space,0.551,,0,40,40,40,1,80,0,,,,,,,,
,,60d336457da539b0a93cb7d3,65af53a4be6af047326a987b,2024-01-23_07h51.07.800,bars,2023.2.3,Win32,166.6666667,657b66ea316d21385b68909f,,,,,,,,,,,1000.442,1001.424,,,1001.924,1002.175,,117,-63,,,,,,,,,,,,,,,,bars/003.png,bars/mask003.png,,,,,,,,,,,,0,2,,,,,,,4,2,5,1,,,,,,,,,,,1001.424,1001.924,1002.175,1006.808,space,4.617,,1006.808,88,23,1007.807,1007.807,1009.725,space,1.901,,0,41,41,41,1,25,140,,,,,,,,
,,60d336457da539b0a93cb7d3,65af53a4be6af047326a987b,2024-01-23_07h51.07.800,bars,2023.2.3,Win32,166.6666667,657b66ea316d21385b68909f,,,,,,,,,,,1009.725,1010.724,,,1011.224,1011.474,,120,120,,,,,,,,,,,,,,,,bars/025.png,bars/mask006.png,,,,,,,,,,,,2,1,,,,,,,2,4,3,4,,,,,,,,,,,1010.724,1011.224,1011.474,1013.29,space,1.799,,1013.29,15,80,1014.291,1014.291,1014.991,space,0.684,,0,42,42,42,1,105,40,,,,,,,,
,,60d336457da539b0a93cb7d3,65af53a4be6af047326a987b,2024-01-23_07h51.07.800,bars,2023.2.3,Win32,166.6666667,657b66ea316d21385b68909f,,,,,,,,,,,1014.991,1015.991,,,1016.49,1016.723,,128,128,,,,,,,,,,,,,,,,bars/047.png,bars/mask007.png,,,,,,,,,,,,0,2,,,,,,,4,2,5,1,,,,,,,,,,,1015.991,1016.49,1016.723,1019.107,space,2.366,,1019.107,67,58,1020.107,1020.107,1022.091,space,1.967,,0,43,43,43,1,15,70,,,,,,,,
,,60d336457da539b0a93cb7d3,65af53a4be6af047326a987b,2024-01-23_07h51.07.800,bars,2023.2.3,Win32,166.6666667,657b66ea316d21385b68909f,,,,,,,,,,,1022.091,1023.09,,,1023.59,1023.84,,19,19,,,,,,,,,,,,,,,,bars/007.png,bars/mask004.png,,,,,,,,,,,,1,1,,,,,,,6,0,5,0,,,,,,,,,,,1023.09,1023.59,1023.84,1026.89,space,3.033,,1026.89,24,36,1027.89,1027.89,1028.724,space,0.817,,0,44,44,44,1,175,55,,,,,,,,
,,60d336457da539b0a93cb7d3,65af53a4be6af047326a987b,2024-01-23_07h51.07.800,bars,2023.2.3,Win32,166.6666667,657b66ea316d21385b68909f,,,,,,,,,,,1028.724,1029.724,,,1030.223,1030.473,,114,114,,,,,,,,,,,,,,,,bars/002.png,bars/mask007.png,,,,,,,,,,,,4,1,,,,,,,8,0,9,0,,,,,,,,,,,1029.724,1030.223,1030.473,1034.54,space,4.049,,1034.54,16,29,1035.54,1035.54,1036.873,space,1.317,,0,45,45,45,1,130,85,,,,,,,,
,,60d336457da539b0a93cb7d3,65af53a4be6af047326a987b,2024-01-23_07h51.07.800,bars,2023.2.3,Win32,166.6666667,657b66ea316d21385b68909f,,,,,,,,,,,1036.874,1037.873,,,1038.374,1038.623,,112,-68,,,,,,,,,,,,,,,,bars/045.png,bars/mask009.png,,,,,,,,,,,,5,1,,,,,,,6,0,8,0,,,,,,,,,,,1037.873,1038.373,1038.623,1043.923,space,5.283,,1043.923,12,78,1044.923,1044.923,1047.373,space,2.434,,0,46,46,46,1,100,10,,,,,,,,
,,60d336457da539b0a93cb7d3,65af53a4be6af047326a987b,2024-01-23_07h51.07.800,bars,2023.2.3,Win32,166.6666667,657b66ea316d21385b68909f,,,,,,,,,,,1047.373,1048.373,,,1048.873,1049.123,,122,122,,,,,,,,,,,,,,,,bars/015.png,bars/mask005.png,,,,,,,,,,,,5,1,,,,,,,8,2,8,3,,,,,,,,,,,1048.373,1048.873,1049.123,1052.289,space,3.149,,1052.29,12,38,1053.277,1053.277,1053.939,space,0.633,,0,47,47,47,1,110,160,,,,,,,,
,,60d336457da539b0a93cb7d3,65af53a4be6af047326a987b,2024-01-23_07h51.07.800,bars,2023.2.3,Win32,166.6666667,657b66ea316d21385b68909f,,,,,,,,,,,1053.939,1054.939,,,1055.439,1055.689,,29,209,,,,,,,,,,,,,,,,bars/033.png,bars/mask003.png,,,,,,,,,,,,9,1,,,,,,,10,4,10,3,,,,,,,,,,,1054.939,1055.439,1055.689,1061.155,space,5.449,,1061.155,4,54,1062.155,1062.155,1065.239,space,3.067,,0,48,48,48,1,25,155,,,,,,,,
,,60d336457da539b0a93cb7d3,65af53a4be6af047326a987b,2024-01-23_07h51.07.800,bars,2023.2.3,Win32,166.6666667,657b66ea316d21385b68909f,,,,,,,,,,,1065.239,1066.239,,,1066.739,1066.989,,71,-109,,,,,,,,,,,,,,,,bars/029.png,bars/mask002.png,,,,,,,,,,,,4,1,,,,,,,10,2,10,2,,,,,,,,,,,1066.239,1066.739,1066.989,1072.139,space,5.134,,1072.139,19,26,1073.139,1073.139,1139.669,space,66.514,,0,49,49,49,1,90,45,,,,,,,,
,,60d336457da539b0a93cb7d3,65af53a4be6af047326a987b,2024-01-23_07h51.07.800,bars,2023.2.3,Win32,166.6666667,657b66ea316d21385b68909f,,,,,,,,,,,,,,,,,,,,,,,,,,,,,,,,,,,,,,,,,,,,,,,,,,,,,,,,,,,,,,,,,,,,,,,,,,,,,,,,,,,,,,,,,,,,,1139.67,1199.668,0,0,0,2,1,sequence_tables/blk046.csv
,,60d336457da539b0a93cb7d3,65af53a4be6af047326a987b,2024-01-23_07h51.07.800,bars,2023.2.3,Win32,166.6666667,657b66ea316d21385b68909f,,,,,,,,,,,1426.166,1427.16,,,1427.647,1427.893,,83,83,,,,,,,,,,,,,,,,bars/028.png,bars/mask003.png,,,,,,,,,,,,0,2,,,,,,,10,2,9,2,,,,,,1199.671,1426.16,space,226.476,,1427.16,1427.647,1427.893,1430.143,space,2.233,,1430.143,38,37,1431.143,1431.143,1431.147,,,,0,0,0,0,1,45,120,,,,,,,,
,,60d336457da539b0a93cb7d3,65af53a4be6af047326a987b,2024-01-23_07h51.07.800,bars,2023.2.3,Win32,166.6666667,657b66ea316d21385b68909f,,,,,,,,,,,1431.147,1432.143,,,1432.643,1432.893,,104,104,,,,,,,,,,,,,,,,bars/002.png,bars/mask000.png,,,,,,,,,,,,0,2,,,,,,,8,0,8,0,,,,,,,,,,,1432.143,1432.643,1432.893,1435.343,space,2.434,,1435.343,26,19,1436.343,1436.343,1436.346,,,,0,1,1,1,1,130,85,,,,,,,,
,,60d336457da539b0a93cb7d3,65af53a4be6af047326a987b,2024-01-23_07h51.07.800,bars,2023.2.3,Win32,166.6666667,657b66ea316d21385b68909f,,,,,,,,,,,1436.346,1437.343,,,1437.843,1438.093,,121,121,,,,,,,,,,,,,,,,bars/027.png,bars/mask003.png,,,,,,,,,,,,3,1,,,,,,,6,2,4,2,,,,,,,,,,,1437.343,1437.843,1438.093,1441.009,space,2.9,,1441.009,11,71,1442.009,1442.009,1442.013,,,,0,2,2,2,1,110,50,,,,,,,,
,,60d336457da539b0a93cb7d3,65af53a4be6af047326a987b,2024-01-23_07h51.07.800,bars,2023.2.3,Win32,166.6666667,657b66ea316d21385b68909f,,,,,,,,,,,1442.013,1443.01,,,1443.509,1443.76,,94,94,,,,,,,,,,,,,,,,bars/031.png,bars/mask001.png,,,,,,,,,,,,1,1,,,,,,,8,0,6,1,,,,,,,,,,,1443.01,1443.509,1443.76,1447.126,space,3.349,,1447.126,26,59,1448.125,1448.125,1448.129,,,,0,3,3,3,1,120,35,,,,,,,,
,,60d336457da539b0a93cb7d3,65af53a4be6af047326a987b,2024-01-23_07h51.07.800,bars,2023.2.3,Win32,166.6666667,657b66ea316d21385b68909f,,,,,,,,,,,1448.129,1449.126,,,1449.626,1449.875,,6,186,,,,,,,,,,,,,,,,bars/003.png,bars/mask001.png,,,,,,,,,,,,3,1,,,,,,,6,2,8,1,,,,,,,,,,,1449.126,1449.626,1449.875,1453.392,space,3.5,,1453.392,19,46,1454.392,1454.392,1454.395,,,,0,4,4,4,1,25,140,,,,,,,,
,,60d336457da539b0a93cb7d3,65af53a4be6af047326a987b,2024-01-23_07h51.07.800,bars,2023.2.3,Win32,166.6666667,657b66ea316d21385b68909f,,,,,,,,,,,1454.395,1455.392,,,1455.892,1456.142,,109,109,,,,,,,,,,,,,,,,bars/008.png,bars/mask008.png,,,,,,,,,,,,6,1,,,,,,,4,0,6,0,,,,,,,,,,,1455.392,1455.892,1456.142,1458.226,space,2.068,,1458.226,1,71,1459.225,1459.225,1459.229,,,,0,5,5,5,1,110,0,,,,,,,,
,,60d336457da539b0a93cb7d3,65af53a4be6af047326a987b,2024-01-23_07h51.07.800,bars,2023.2.3,Win32,166.6666667,657b66ea316d21385b68909f,,,,,,,,,,,1459.229,1460.226,,,1460.713,1460.958,,168,-12,,,,,,,,,,,,,,,,bars/035.png,bars/mask003.png,,,,,,,,,,,,2,1,,,,,,,2,0,2,1,,,,,,,,,,,1460.226,1460.713,1460.958,1465.009,space,4.034,,1465.009,7,72,1466.008,1466.008,1466.012,,,,0,6,6,6,1,175,60,,,,,,,,
,,60d336457da539b0a93cb7d3,65af53a4be6af047326a987b,2024-01-23_07h51.07.800,bars,2023.2.3,Win32,166.6666667,657b66ea316d21385b68909f,,,,,,,,,,,1466.012,1467.009,,,1467.508,1467.758,,132,-48,,,,,,,,,,,,,,,,bars/028.png,bars/mask006.png,,,,,,,,,,,,1,2,,,,,,,4,2,4,1,,,,,,,,,,,1467.009,1467.508,1467.758,1471.009,space,3.234,,1471.009,87,12,1472.009,1472.009,1472.015,,,,0,7,7,7,1,45,120,,,,,,,,
,,60d336457da539b0a93cb7d3,65af53a4be6af047326a987b,2024-01-23_07h51.07.800,bars,2023.2.3,Win32,166.6666667,657b66ea316d21385b68909f,,,,,,,,,,,1472.015,1473.008,,,1473.508,1473.758,,48,48,,,,,,,,,,,,,,,,bars/025.png,bars/mask000.png,,,,,,,,,,,,1,2,,,,,,,6,0,6,1,,,,,,,,,,,1473.008,1473.508,1473.758,1476.446,space,2.669,,1476.446,57,8,1477.441,1477.441,1477.445,,,,0,8,8,8,1,105,40,,,,,,,,
,,60d336457da539b0a93cb7d3,65af53a4be6af047326a987b,2024-01-23_07h51.07.800,bars,2023.2.3,Win32,166.6666667,657b66ea316d21385b68909f,,,,,,,,,,,1477.445,1478.441,,,1478.942,1479.179,,52,52,,,,,,,,,,,,,,,,bars/044.png,bars/mask001.png,,,,,,,,,,,,1,1,,,,,,,4,2,5,2,,,,,,,,,,,1478.441,1478.942,1479.179,1481.874,space,2.667,,1481.874,23,77,1482.891,1482.891,1482.892,,,,0,9,9,9,1,75,155,,,,,,,,
,,60d336457da539b0a93cb7d3,65af53a4be6af047326a987b,2024-01-23_07h51.07.800,bars,2023.2.3,Win32,166.6666667,657b66ea316d21385b68909f,,,,,,,,,,,1482.893,1483.892,,,1484.391,1484.641,,98,98,,,,,,,,,,,,,,,,bars/010.png,bars/mask008.png,,,,,,,,,,,,0,2,,,,,,,2,0,2,0,,,,,,,,,,,1483.892,1484.391,1484.641,1488.325,space,3.668,,1488.325,67,43,1489.324,1489.324,1489.328,,,,0,10,10,10,1,165,55,,,,,,,,
,,60d336457da539b0a93cb7d3,65af53a4be6af047326a987b,2024-01-23_07h51.07.800,bars,2023.2.3,Win32,166.6666667,657b66ea316d21385b68909f,,,,,,,,,,,1489.328,1490.325,,,1490.824,1491.074,,106,106,,,,,,,,,,,,,,,,bars/004.png,bars/mask002.png,,,,,,,,,,,,1,2,,,,,,,0,2,1,4,,,,,,,,,,,1490.325,1490.824,1491.074,1493.207,space,2.116,,1493.207,81,19,1494.208,1494.208,1494.211,,,,0,11,11,11,1,25,125,,,,,,,,
,,60d336457da539b0a93cb7d3,65af53a4be6af047326a987b,2024-01-23_07h51.07.800,bars,2023.2.3,Win32,166.6666667,657b66ea316d21385b68909f,,,,,,,,,,,1494.211,1495.208,,,1495.708,1495.958,,134,134,,,,,,,,,,,,,,,,bars/001.png,bars/mask002.png,,,,,,,,,,,,2,1,,,,,,,2,0,2,0,,,,,,,,,,,1495.208,1495.708,1495.958,1499.175,space,3.2,,1499.175,4,49,1500.174,1500.174,1500.178,,,,0,12,12,12,1,130,85,,,,,,,,
,,60d336457da539b0a93cb7d3,65af53a4be6af047326a987b,2024-01-23_07h51.07.800,bars,2023.2.3,Win32,166.6666667,657b66ea316d21385b68909f,,,,,,,,,,,1500.178,1501.174,,,1501.674,1501.924,,154,154,,,,,,,,,,,,,,,,bars/023.png,bars/mask001.png,,,,,,,,,,,,0,2,,,,,,,0,2,1,1,,,,,,,,,,,1501.174,1501.674,1501.924,1521.791,space,19.849,,1521.791,46,39,1522.789,1522.789,1522.793,,,,0,13,13,13,1,20,115,,,,,,,,
,,60d336457da539b0a93cb7d3,65af53a4be6af047326a987b,2024-01-23_07h51.07.800,bars,2023.2.3,Win32,166.6666667,657b66ea316d21385b68909f,,,,,,,,,,,1522.793,1523.789,,,1524.289,1524.54,,55,55,,,,,,,,,,,,,,,,bars/019.png,bars/mask003.png,,,,,,,,,,,,1,1,,,,,,,2,0,1,0,,,,,,,,,,,1523.789,1524.289,1524.54,1526.107,space,1.551,,1526.107,10,50,1527.106,1527.106,1527.11,,,,0,14,14,14,1,45,105,,,,,,,,
,,60d336457da539b0a93cb7d3,65af53a4be6af047326a987b,2024-01-23_07h51.07.800,bars,2023.2.3,Win32,166.6666667,657b66ea316d21385b68909f,,,,,,,,,,,1527.11,1528.106,,,1528.606,1528.844,,56,56,,,,,,,,,,,,,,,,bars/036.png,bars/mask004.png,,,,,,,,,,,,0,2,,,,,,,4,2,4,3,,,,,,,,,,,1528.106,1528.606,1528.844,1534.373,space,5.501,,1534.373,89,36,1535.373,1535.373,1535.377,,,,0,15,15,15,1,145,20,,,,,,,,
,,60d336457da539b0a93cb7d3,65af53a4be6af047326a987b,2024-01-23_07h51.07.800,bars,2023.2.3,Win32,166.6666667,657b66ea316d21385b68909f,,,,,,,,,,,1535.377,1536.372,,,1536.872,1537.123,,144,144,,,,,,,,,,,,,,,,bars/037.png,bars/mask004.png,,,,,,,,,,,,2,1,,,,,,,2,4,2,3,,,,,,,,,,,1536.372,1536.872,1537.123,1539.489,space,2.35,,1539.489,6,39,1540.489,1540.489,1540.494,,,,0,16,16,16,1,150,105,,,,,,,,
,,60d336457da539b0a93cb7d3,65af53a4be6af047326a987b,2024-01-23_07h51.07.800,bars,2023.2.3,Win32,166.6666667,657b66ea316d21385b68909f,,,,,,,,,,,1540.494,1541.489,,,1541.99,1542.222,,49,49,,,,,,,,,,,,,,,,bars/031.png,bars/mask006.png,,,,,,,,,,,,2,2,,,,,,,4,2,7,4,,,,,,,,,,,1541.489,1541.99,1542.222,1545.355,space,3.117,,1545.355,71,14,1546.355,1546.355,1546.36,,,,0,17,17,17,1,120,35,,,,,,,,
,,60d336457da539b0a93cb7d3,65af53a4be6af047326a987b,2024-01-23_07h51.07.800,bars,2023.2.3,Win32,166.6666667,657b66ea316d21385b68909f,,,,,,,,,,,1546.36,1547.356,,,1547.856,1548.105,,149,149,,,,,,,,,,,,,,,,bars/036.png,bars/mask006.png,,,,,,,,,,,,5,1,,,,,,,6,4,6,4,,,,,,,,,,,1547.356,1547.856,1548.105,1553.056,space,4.934,,1553.056,4,51,1554.055,1554.056,1554.059,,,,0,18,18,18,1,145,20,,,,,,,,
,,60d336457da539b0a93cb7d3,65af53a4be6af047326a987b,2024-01-23_07h51.07.800,bars,2023.2.3,Win32,166.6666667,657b66ea316d21385b68909f,,,,,,,,,,,1554.06,1555.056,,,1555.555,1555.805,,113,113,,,,,,,,,,,,,,,,bars/008.png,bars/mask000.png,,,,,,,,,,,,1,1,,,,,,,4,6,1,6,,,,,,,,,,,1555.056,1555.555,1555.805,1558.105,space,2.284,,1558.105,3,67,1559.105,1559.105,1559.106,,,,0,19,19,19,1,110,0,,,,,,,,
,,60d336457da539b0a93cb7d3,65af53a4be6af047326a987b,2024-01-23_07h51.07.800,bars,2023.2.3,Win32,166.6666667,657b66ea316d21385b68909f,,,,,,,,,,,1559.106,1560.105,,,1560.605,1560.855,,147,147,,,,,,,,,,,,,,,,bars/042.png,bars/mask008.png,,,,,,,,,,,,5,1,,,,,,,6,4,5,5,,,,,,,,,,,1560.105,1560.605,1560.855,1562.521,space,1.65,,1562.521,2,72,1563.522,1563.522,1563.526,,,,0,20,20,20,1,145,75,,,,,,,,
,,60d336457da539b0a93cb7d3,65af53a4be6af047326a987b,2024-01-23_07h51.07.800,bars,2023.2.3,Win32,166.6666667,657b66ea316d21385b68909f,,,,,,,,,,,1563.526,1564.522,,,1565.021,1565.272,,172,172,,,,,,,,,,,,,,,,bars/046.png,bars/mask007.png,,,,,,,,,,,,3,1,,,,,,,8,2,8,3,,,,,,,,,,,1564.522,1565.021,1565.272,1567.522,space,2.218,,1567.522,17,87,1568.522,1568.522,1568.525,,,,0,21,21,21,1,155,85,,,,,,,,
,,60d336457da539b0a93cb7d3,65af53a4be6af047326a987b,2024-01-23_07h51.07.800,bars,2023.2.3,Win32,166.6666667,657b66ea316d21385b68909f,,,,,,,,,,,1568.525,1569.522,,,1570.022,1570.272,,163,163,,,,,,,,,,,,,,,,bars/049.png,bars/mask008.png,,,,,,,,,,,,5,1,,,,,,,6,4,6,5,,,,,,,,,,,1569.522,1570.022,1570.272,1571.388,space,1.1,,1571.388,3,48,1572.389,1572.389,1572.389,,,,0,22,22,22,1,160,115,,,,,,,,
,,60d336457da539b0a93cb7d3,65af53a4be6af047326a987b,2024-01-23_07h51.07.800,bars,2023.2.3,Win32,166.6666667,657b66ea316d21385b68909f,,,,,,,,,,,1572.389,1573.388,,,1573.888,1574.137,,155,-25,,,,,,,,,,,,,,,,bars/042.png,bars/mask003.png,,,,,,,,,,,,5,1,,,,,,,8,2,7,0,,,,,,,,,,,1573.388,1573.888,1574.137,1577.555,space,3.401,,1577.555,10,80,1578.555,1578.555,1578.558,,,,0,23,23,23,1,145,75,,,,,,,,
,,60d336457da539b0a93cb7d3,65af53a4be6af047326a987b,2024-01-23_07h51.07.800,bars,2023.2.3,Win32,166.6666667,657b66ea316d21385b68909f,,,,,,,,,,,1578.558,1579.554,,,1580.038,1580.288,,142,-38,,,,,,,,,,,,,,,,bars/040.png,bars/mask009.png,,,,,,,,,,,,7,1,,,,,,,6,0,7,0,,,,,,,,,,,1579.554,1580.038,1580.288,1584.538,space,4.233,,1584.538,2,43,1585.537,1585.537,1585.541,,,,0,24,24,24,1,140,5,,,,,,,,
,,60d336457da539b0a93cb7d3,65af53a4be6af047326a987b,2024-01-23_07h51.07.800,bars,2023.2.3,Win32,166.6666667,657b66ea316d21385b68909f,,,,,,,,,,,1585.541,1586.537,,,1587.037,1587.287,,114,114,,,,,,,,,,,,,,,,bars/008.png,bars/mask002.png,,,,,,,,,,,,4,1,,,,,,,4,0,5,1,,,,,,,,,,,1586.537,1587.037,1587.287,1591.838,space,4.534,,1591.838,4,66,1592.838,1592.838,1592.842,,,,0,25,25,25,1,110,0,,,,,,,,
,,60d336457da539b0a93cb7d3,65af53a4be6af047326a987b,2024-01-23_07h51.07.800,bars,2023.2.3,Win32,166.6666667,657b66ea316d21385b68909f,,,,,,,,,,,1592.842,1593.837,,,1594.321,1594.571,,118,118,,,,,,,,,,,,,,,,bars/025.png,bars/mask005.png,,,,,,,,,,,,4,1,,,,,,,6,2,7,2,,,,,,,,,,,1593.837,1594.321,1594.571,1596.471,space,1.884,,1596.471,13,78,1597.453,1597.453,1597.454,,,,0,26,26,26,1,105,40,,,,,,,,
,,60d336457da539b0a93cb7d3,65af53a4be6af047326a987b,2024-01-23_07h51.07.800,bars,2023.2.3,Win32,166.6666667,657b66ea316d21385b68909f,,,,,,,,,,,1597.454,1598.454,,,1598.954,1599.204,,84,84,,,,,,,,,,,,,,,,bars/012.png,bars/mask000.png,,,,,,,,,,,,6,1,,,,,,,8,0,8,0,,,,,,,,,,,1598.454,1598.954,1599.204,1604.154,space,4.934,,1604.154,6,69,1605.154,1605.154,1605.158,,,,0,27,27,27,1,90,15,,,,,,,,
,,60d336457da539b0a93cb7d3,65af53a4be6af047326a987b,2024-01-23_07h51.07.800,bars,2023.2.3,Win32,166.6666667,657b66ea316d21385b68909f,,,,,,,,,,,1605.158,1606.154,,,1606.654,1606.904,,15,195,,,,,,,,,,,,,,,,bars/003.png,bars/mask006.png,,,,,,,,,,,,5,1,,,,,,,6,2,7,0,,,,,,,,,,,1606.154,1606.654,1606.904,1611.753,space,4.834,,1611.753,10,55,1612.753,1612.753,1612.757,,,,0,28,28,28,1,25,140,,,,,,,,
,,60d336457da539b0a93cb7d3,65af53a4be6af047326a987b,2024-01-23_07h51.07.800,bars,2023.2.3,Win32,166.6666667,657b66ea316d21385b68909f,,,,,,,,,,,1612.758,1613.753,,,1614.253,1614.489,,20,20,,,,,,,,,,,,,,,,bars/023.png,bars/mask002.png,,,,,,,,,,,,7,1,,,,,,,8,4,7,4,,,,,,,,,,,1613.753,1614.253,1614.489,1616.42,space,1.917,,1616.42,0,85,1617.42,1617.42,1617.421,,,,0,29,29,29,1,20,115,,,,,,,,
,,60d336457da539b0a93cb7d3,65af53a4be6af047326a987b,2024-01-23_07h51.07.800,bars,2023.2.3,Win32,166.6666667,657b66ea316d21385b68909f,,,,,,,,,,,1617.421,1618.42,,,1618.92,1619.17,,66,66,,,,,,,,,,,,,,,,bars/044.png,bars/mask003.png,,,,,,,,,,,,7,1,,,,,,,10,6,10,6,,,,,,,,,,,1618.42,1618.92,1619.17,1623.77,space,4.584,,1623.77,9,89,1624.77,1624.77,1624.773,,,,0,30,30,30,1,75,155,,,,,,,,
,,60d336457da539b0a93cb7d3,65af53a4be6af047326a987b,2024-01-23_07h51.07.800,bars,2023.2.3,Win32,166.6666667,657b66ea316d21385b68909f,,,,,,,,,,,1624.773,1625.774,,,1626.303,1626.537,,110,110,,,,,,,,,,,,,,,,bars/008.png,bars/mask002.png,,,,,,,,,,,,10,1,,,,,,,10,8,10,9,,,,,,,,,,,1625.774,1626.303,1626.537,1628.287,space,1.734,,1628.287,0,70,1629.286,1629.286,1629.286,,,,0,31,31,31,1,110,0,,,,,,,,
,,60d336457da539b0a93cb7d3,65af53a4be6af047326a987b,2024-01-23_07h51.07.800,bars,2023.2.3,Win32,166.6666667,657b66ea316d21385b68909f,,,,,,,,,,,1629.286,1630.286,,,1630.786,1631.036,,105,105,,,,,,,,,,,,,,,,bars/027.png,bars/mask006.png,,,,,,,,,,,,8,1,,,,,,,10,10,9,9,,,,,,,,,,,1630.286,1630.786,1631.036,1634.502,space,3.45,,1634.502,5,55,1635.502,1635.502,1635.506,,,,0,32,32,32,1,110,50,,,,,,,,
,,60d336457da539b0a93cb7d3,65af53a4be6af047326a987b,2024-01-23_07h51.07.800,bars,2023.2.3,Win32,166.6666667,657b66ea316d21385b68909f,,,,,,,,,,,1635.507,1636.519,,,1637.019,1637.269,,145,145,,,,,,,,,,,,,,,,bars/035.png,bars/mask001.png,,,,,,,,,,,,0,1,,,,,,,8,10,9,10,,,,,,,,,,,1636.519,1637.019,1637.269,1639.586,space,2.3,,1639.586,30,85,1640.585,1640.585,1640.589,,,,0,33,33,33,1,175,60,,,,,,,,
,,60d336457da539b0a93cb7d3,65af53a4be6af047326a987b,2024-01-23_07h51.07.800,bars,2023.2.3,Win32,166.6666667,657b66ea316d21385b68909f,,,,,,,,,,,1640.589,1641.586,,,1642.086,1642.335,,54,234,,,,,,,,,,,,,,,,bars/007.png,bars/mask007.png,,,,,,,,,,,,8,2,,,,,,,10,8,10,8,,,,,,,,,,,1641.586,1642.086,1642.335,1645.552,space,3.2,,1645.552,59,1,1646.553,1646.553,1646.557,,,,0,34,34,34,1,175,55,,,,,,,,
,,60d336457da539b0a93cb7d3,65af53a4be6af047326a987b,2024-01-23_07h51.07.800,bars,2023.2.3,Win32,166.6666667,657b66ea316d21385b68909f,,,,,,,,,,,1646.557,1647.552,,,1648.052,1648.319,,28,208,,,,,,,,,,,,,,,,bars/022.png,bars/mask007.png,,,,,,,,,,,,5,2,,,,,,,10,6,10,7,,,,,,,,,,,1647.552,1648.052,1648.319,1650.919,space,2.584,,1650.919,67,8,1651.918,1651.918,1651.922,,,,0,35,35,35,1,95,20,,,,,,,,
,,60d336457da539b0a93cb7d3,65af53a4be6af047326a987b,2024-01-23_07h51.07.800,bars,2023.2.3,Win32,166.6666667,657b66ea316d21385b68909f,,,,,,,,,,,1651.922,1652.918,,,1653.402,1653.652,,108,108,,,,,,,,,,,,,,,,bars/009.png,bars/mask006.png,,,,,,,,,,,,5,2,,,,,,,8,8,8,6,,,,,,,,,,,1652.918,1653.402,1653.652,1655.819,space,2.151,,1655.819,87,3,1656.819,1656.819,1656.822,,,,0,36,36,36,1,15,105,,,,,,,,
,,60d336457da539b0a93cb7d3,65af53a4be6af047326a987b,2024-01-23_07h51.07.800,bars,2023.2.3,Win32,166.6666667,657b66ea316d21385b68909f,,,,,,,,,,,1656.822,1657.819,,,1658.319,1658.555,,32,32,,,,,,,,,,,,,,,,bars/025.png,bars/mask003.png,,,,,,,,,,,,7,2,,,,,,,10,10,9,10,,,,,,,,,,,1657.819,1658.319,1658.555,1660.985,space,2.4,,1660.985,73,8,1661.985,1661.985,1661.989,,,,0,37,37,37,1,105,40,,,,,,,,
,,60d336457da539b0a93cb7d3,65af53a4be6af047326a987b,2024-01-23_07h51.07.800,bars,2023.2.3,Win32,166.6666667,657b66ea316d21385b68909f,,,,,,,,,,,1661.989,1662.969,,,1663.468,1663.719,,45,225,,,,,,,,,,,,,,,,bars/035.png,bars/mask005.png,,,,,,,,,,,,5,2,,,,,,,10,10,8,10,,,,,,,,,,,1662.969,1663.468,1663.719,1668.152,space,4.417,,1668.152,50,15,1669.151,1669.152,1669.155,,,,0,38,38,38,1,175,60,,,,,,,,
,,60d336457da539b0a93cb7d3,65af53a4be6af047326a987b,2024-01-23_07h51.07.800,bars,2023.2.3,Win32,166.6666667,657b66ea316d21385b68909f,,,,,,,,,,,1669.155,1670.152,,,1670.651,1670.902,,42,42,,,,,,,,,,,,,,,,bars/017.png,bars/mask007.png,,,,,,,,,,,,8,2,,,,,,,10,10,8,9,,,,,,,,,,,1670.152,1670.651,1670.902,1672.418,space,1.5,,1672.418,77,3,1673.418,1673.418,1673.421,,,,0,39,39,39,1,145,45,,,,,,,,
,,60d336457da539b0a93cb7d3,65af53a4be6af047326a987b,2024-01-23_07h51.07.800,bars,2023.2.3,Win32,166.6666667,657b66ea316d21385b68909f,,,,,,,,,,,1673.421,1674.418,,,1674.918,1675.168,,81,81,,,,,,,,,,,,,,,,bars/002.png,bars/mask001.png,,,,,,,,,,,,9,2,,,,,,,8,10,10,10,,,,,,,,,,,1674.418,1674.918,1675.168,1678.501,space,3.316,,1678.501,49,4,1679.501,1679.501,1679.505,,,,0,40,40,40,1,130,85,,,,,,,,
,,60d336457da539b0a93cb7d3,65af53a4be6af047326a987b,2024-01-23_07h51.07.800,bars,2023.2.3,Win32,166.6666667,657b66ea316d21385b68909f,,,,,,,,,,,1679.505,1680.501,,,1681.001,1681.234,,129,129,,,,,,,,,,,,,,,,bars/043.png,bars/mask003.png,,,,,,,,,,,,10,2,,,,,,,10,10,10,10,,,,,,,,,,,1680.501,1681.001,1681.234,1683.335,space,2.085,,1683.335,81,1,1684.334,1684.334,1684.338,,,,0,41,41,41,1,30,130,,,,,,,,
,,60d336457da539b0a93cb7d3,65af53a4be6af047326a987b,2024-01-23_07h51.07.800,bars,2023.2.3,Win32,166.6666667,657b66ea316d21385b68909f,,,,,,,,,,,1684.339,1685.334,,,1685.835,1686.084,,49,49,,,,,,,,,,,,,,,,bars/031.png,bars/mask003.png,,,,,,,,,,,,5,2,,,,,,,10,10,9,10,,,,,,,,,,,1685.334,1685.835,1686.084,1689.817,space,3.717,,1689.817,71,14,1690.818,1690.818,1690.821,,,,0,42,42,42,1,120,35,,,,,,,,
,,60d336457da539b0a93cb7d3,65af53a4be6af047326a987b,2024-01-23_07h51.07.800,bars,2023.2.3,Win32,166.6666667,657b66ea316d21385b68909f,,,,,,,,,,,1690.821,1691.817,,,1692.318,1692.568,,74,74,,,,,,,,,,,,,,,,bars/046.png,bars/mask002.png,,,,,,,,,,,,6,2,,,,,,,8,10,8,10,,,,,,,,,,,1691.817,1692.318,1692.568,1694.9,space,2.316,,1694.9,81,11,1695.9,1695.9,1695.904,,,,0,43,43,43,1,155,85,,,,,,,,
,,60d336457da539b0a93cb7d3,65af53a4be6af047326a987b,2024-01-23_07h51.07.800,bars,2023.2.3,Win32,166.6666667,657b66ea316d21385b68909f,,,,,,,,,,,1695.904,1696.9,,,1697.4,1697.651,,159,159,,,,,,,,,,,,,,,,bars/044.png,bars/mask001.png,,,,,,,,,,,,8,2,,,,,,,6,8,6,9,,,,,,,,,,,1696.9,1697.4,1697.651,1699.184,space,1.517,,1699.184,84,4,1700.183,1700.183,1700.184,,,,0,44,44,44,1,75,155,,,,,,,,
,,60d336457da539b0a93cb7d3,65af53a4be6af047326a987b,2024-01-23_07h51.07.800,bars,2023.2.3,Win32,166.6666667,657b66ea316d21385b68909f,,,,,,,,,,,1700.184,1701.172,,,1701.667,1701.917,,47,47,,,,,,,,,,,,,,,,bars/007.png,bars/mask004.png,,,,,,,,,,,,5,2,,,,,,,4,6,3,7,,,,,,,,,,,1701.172,1701.667,1701.917,1703.85,space,1.917,,1703.85,52,8,1704.851,1704.851,1704.851,,,,0,45,45,45,1,175,55,,,,,,,,
,,60d336457da539b0a93cb7d3,65af53a4be6af047326a987b,2024-01-23_07h51.07.800,bars,2023.2.3,Win32,166.6666667,657b66ea316d21385b68909f,,,,,,,,,,,1704.851,1705.85,,,1706.351,1706.6,,123,-57,,,,,,,,,,,,,,,,bars/028.png,bars/mask000.png,,,,,,,,,,,,4,2,,,,,,,6,4,5,4,,,,,,,,,,,1705.85,1706.351,1706.6,1710.334,space,3.718,,1710.334,78,3,1711.333,1711.333,1711.337,,,,0,46,46,46,1,45,120,,,,,,,,
,,60d336457da539b0a93cb7d3,65af53a4be6af047326a987b,2024-01-23_07h51.07.800,bars,2023.2.3,Win32,166.6666667,657b66ea316d21385b68909f,,,,,,,,,,,1711.337,1712.333,,,1712.833,1713.084,,102,102,,,,,,,,,,,,,,,,bars/019.png,bars/mask005.png,,,,,,,,,,,,1,2,,,,,,,8,2,7,1,,,,,,,,,,,1712.333,1712.833,1713.084,1715.55,space,2.451,,1715.55,57,3,1716.533,1716.533,1716.537,,,,0,47,47,47,1,45,105,,,,,,,,
,,60d336457da539b0a93cb7d3,65af53a4be6af047326a987b,2024-01-23_07h51.07.800,bars,2023.2.3,Win32,166.6666667,657b66ea316d21385b68909f,,,,,,,,,,,1716.537,1717.533,,,1718.033,1718.283,,128,128,,,,,,,,,,,,,,,,bars/024.png,bars/mask002.png,,,,,,,,,,,,4,1,,,,,,,6,4,6,4,,,,,,,,,,,1717.533,1718.033,1718.283,1722.217,space,3.918,,1722.217,8,42,1723.216,1723.216,1723.22,,,,0,48,48,48,1,120,170,,,,,,,,
,,60d336457da539b0a93cb7d3,65af53a4be6af047326a987b,2024-01-23_07h51.07.800,bars,2023.2.3,Win32,166.6666667,657b66ea316d21385b68909f,,,,,,,,,,,1723.22,1724.217,,,1724.733,1724.983,,158,-22,,,,,,,,,,,,,,,,bars/049.png,bars/mask005.png,,,,,,,,,,,,4,1,,,,,,,4,6,4,5,,,,,,,,,,,1724.217,1724.733,1724.983,1728.883,space,3.883,,1728.883,2,43,1729.883,1729.883,1729.887,,,,0,49,49,49,1,160,115,,,,,,,,
,,60d336457da539b0a93cb7d3,65af53a4be6af047326a987b,2024-01-23_07h51.07.800,bars,2023.2.3,Win32,166.6666667,657b66ea316d21385b68909f,,,,,,,,,,,,,,,,,,,,,,,,,,,,,,,,,,,,,,,,,,,,,,,,,,,,,,,,,,,,,,,,,,,,,,,,,,,,,,,,,,,,,,,,,,,,,1729.887,1789.915,0,1,1,4,1,sequence_tables/blk033.csv
,,60d336457da539b0a93cb7d3,65af53a4be6af047326a987b,2024-01-23_07h51.07.800,bars,2023.2.3,Win32,166.6666667,657b66ea316d21385b68909f,,,,,,,,,,,1801.865,1802.864,,,1803.364,1803.597,,165,-15,,,,,,,,,,,,,,,,bars/018.png,bars/mask009.png,,,,,,,,,,,,4,1,,,,,,,8,1,8,0,,,,,,1789.918,1801.863,space,11.933,,1802.864,1803.364,1803.597,1807.147,space,3.533,,1807.147,15,75,1808.147,1808.147,1808.15,,,,0,0,0,0,1,150,90,,,,,,,,
,,60d336457da539b0a93cb7d3,65af53a4be6af047326a987b,2024-01-23_07h51.07.800,bars,2023.2.3,Win32,166.6666667,657b66ea316d21385b68909f,,,,,,,,,,,1808.15,1809.147,,,1809.646,1809.897,,27,27,,,,,,,,,,,,,,,,bars/014.png,bars/mask008.png,,,,,,,,,,,,0,2,,,,,,,6,3,5,3,,,,,,,,,,,1809.147,1809.646,1809.897,1811.48,space,1.567,,1811.48,53,27,1812.48,1812.48,1812.484,,,,0,1,1,1,1,80,0,,,,,,,,
,,60d336457da539b0a93cb7d3,65af53a4be6af047326a987b,2024-01-23_07h51.07.800,bars,2023.2.3,Win32,166.6666667,657b66ea316d21385b68909f,,,,,,,,,,,1812.485,1813.496,,,1813.996,1814.247,,33,33,,,,,,,,,,,,,,,,bars/007.png,bars/mask003.png,,,,,,,,,,,,2,2,,,,,,,4,5,5,6,,,,,,,,,,,1813.496,1813.996,1814.247,1816.08,space,1.818,,1816.08,38,22,1817.079,1817.079,1817.083,,,,0,2,2,2,1,175,55,,,,,,,,
,,60d336457da539b0a93cb7d3,65af53a4be6af047326a987b,2024-01-23_07h51.07.800,bars,2023.2.3,Win32,166.6666667,657b66ea316d21385b68909f,,,,,,,,,,,1817.083,1818.08,,,1818.579,1818.83,,19,19,,,,,,,,,,,,,,,,bars/007.png,bars/mask008.png,,,,,,,,,,,,1,1,,,,,,,6,3,6,2,,,,,,,,,,,1818.08,1818.579,1818.83,1821.113,space,2.267,,1821.113,24,36,1822.113,1822.113,1822.114,,,,0,3,3,3,1,175,55,,,,,,,,
,,60d336457da539b0a93cb7d3,65af53a4be6af047326a987b,2024-01-23_07h51.07.800,bars,2023.2.3,Win32,166.6666667,657b66ea316d21385b68909f,,,,,,,,,,,1822.114,1823.113,,,1823.613,1823.88,,158,158,,,,,,,,,,,,,,,,bars/014.png,bars/mask003.png,,,,,,,,,,,,0,2,,,,,,,8,1,6,0,,,,,,,,,,,1823.113,1823.613,1823.88,1827.847,space,3.95,,1827.847,78,22,1828.846,1828.846,1828.85,,,,0,4,4,4,1,80,0,,,,,,,,
,,60d336457da539b0a93cb7d3,65af53a4be6af047326a987b,2024-01-23_07h51.07.800,bars,2023.2.3,Win32,166.6666667,657b66ea316d21385b68909f,,,,,,,,,,,1828.85,1829.846,,,1830.346,1830.596,,118,118,,,,,,,,,,,,,,,,bars/027.png,bars/mask000.png,,,,,,,,,,,,7,1,,,,,,,10,3,10,3,,,,,,,,,,,1829.846,1830.346,1830.596,1833.046,space,2.433,,1833.046,8,68,1834.046,1834.046,1834.05,,,,0,5,5,5,1,110,50,,,,,,,,
,,60d336457da539b0a93cb7d3,65af53a4be6af047326a987b,2024-01-23_07h51.07.800,bars,2023.2.3,Win32,166.6666667,657b66ea316d21385b68909f,,,,,,,,,,,1834.05,1835.046,,,1835.546,1835.796,,125,125,,,,,,,,,,,,,,,,bars/032.png,bars/mask005.png,,,,,,,,,,,,8,1,,,,,,,8,1,8,0,,,,,,,,,,,1835.046,1835.546,1835.796,1837.412,space,1.6,,1837.412,0,75,1838.413,1838.413,1838.413,,,,0,6,6,6,1,125,20,,,,,,,,
,,60d336457da539b0a93cb7d3,65af53a4be6af047326a987b,2024-01-23_07h51.07.800,bars,2023.2.3,Win32,166.6666667,657b66ea316d21385b68909f,,,,,,,,,,,1838.413,1839.412,,,1839.902,1840.145,,130,130,,,,,,,,,,,,,,,,bars/015.png,bars/mask005.png,,,,,,,,,,,,2,1,,,,,,,6,0,6,0,,,,,,,,,,,1839.412,1839.901,1840.145,1842.063,space,1.9,,1842.063,20,30,1843.046,1843.046,1843.049,,,,0,7,7,7,1,110,160,,,,,,,,
,,60d336457da539b0a93cb7d3,65af53a4be6af047326a987b,2024-01-23_07h51.07.800,bars,2023.2.3,Win32,166.6666667,657b66ea316d21385b68909f,,,,,,,,,,,1843.049,1844.046,,,1844.546,1844.795,,45,45,,,,,,,,,,,,,,,,bars/026.png,bars/mask008.png,,,,,,,,,,,,4,1,,,,,,,4,0,6,0,,,,,,,,,,,1844.046,1844.546,1844.795,1846.645,space,1.833,,1846.645,10,40,1847.645,1847.645,1847.649,,,,0,8,8,8,1,35,85,,,,,,,,
,,60d336457da539b0a93cb7d3,65af53a4be6af047326a987b,2024-01-23_07h51.07.800,bars,2023.2.3,Win32,166.6666667,657b66ea316d21385b68909f,,,,,,,,,,,1847.649,1848.645,,,1849.146,1849.396,,34,34,,,,,,,,,,,,,,,,bars/041.png,bars/mask005.png,,,,,,,,,,,,3,1,,,,,,,6,0,6,0,,,,,,,,,,,1848.645,1849.146,1849.396,1853.162,space,3.75,,1853.162,14,51,1854.162,1854.162,1854.166,,,,0,9,9,9,1,20,85,,,,,,,,
,,60d336457da539b0a93cb7d3,65af53a4be6af047326a987b,2024-01-23_07h51.07.800,bars,2023.2.3,Win32,166.6666667,657b66ea316d21385b68909f,,,,,,,,,,,1854.166,1855.162,,,1855.662,1855.912,,147,147,,,,,,,,,,,,,,,,bars/038.png,bars/mask000.png,,,,,,,,,,,,3,1,,,,,,,8,2,8,3,,,,,,,,,,,1855.162,1855.662,1855.912,1861.295,space,5.383,,1861.295,18,77,1862.295,1862.295,1862.298,,,,0,10,10,10,1,165,70,,,,,,,,
,,60d336457da539b0a93cb7d3,65af53a4be6af047326a987b,2024-01-23_07h51.07.800,bars,2023.2.3,Win32,166.6666667,657b66ea316d21385b68909f,,,,,,,,,,,1862.298,1863.295,,,1863.778,1864.028,,12,12,,,,,,,,,,,,,,,,bars/024.png,bars/mask008.png,,,,,,,,,,,,0,2,,,,,,,6,0,7,0,,,,,,,,,,,1863.295,1863.778,1864.028,1867.362,space,3.316,,1867.362,72,22,1868.361,1868.361,1868.366,,,,0,11,11,11,1,120,170,,,,,,,,
,,60d336457da539b0a93cb7d3,65af53a4be6af047326a987b,2024-01-23_07h51.07.800,bars,2023.2.3,Win32,166.6666667,657b66ea316d21385b68909f,,,,,,,,,,,1868.366,1869.361,,,1869.861,1870.111,,98,98,,,,,,,,,,,,,,,,bars/021.png,bars/mask000.png,,,,,,,,,,,,0,2,,,,,,,4,2,5,2,,,,,,,,,,,1869.361,1869.861,1870.111,1873.761,space,3.633,,1873.761,57,28,1874.761,1874.761,1874.765,,,,0,12,12,12,1,155,70,,,,,,,,
,,60d336457da539b0a93cb7d3,65af53a4be6af047326a987b,2024-01-23_07h51.07.800,bars,2023.2.3,Win32,166.6666667,657b66ea316d21385b68909f,,,,,,,,,,,1874.765,1875.761,,,1876.26,1876.511,,142,142,,,,,,,,,,,,,,,,bars/002.png,bars/mask003.png,,,,,,,,,,,,4,1,,,,,,,6,0,7,0,,,,,,,,,,,1875.761,1876.26,1876.511,1879.194,space,2.667,,1879.194,12,57,1880.194,1880.194,1880.198,,,,0,13,13,13,1,130,85,,,,,,,,
,,60d336457da539b0a93cb7d3,65af53a4be6af047326a987b,2024-01-23_07h51.07.800,bars,2023.2.3,Win32,166.6666667,657b66ea316d21385b68909f,,,,,,,,,,,1880.199,1881.194,,,1881.695,1881.944,,37,217,,,,,,,,,,,,,,,,bars/041.png,bars/mask000.png,,,,,,,,,,,,3,1,,,,,,,8,2,7,2,,,,,,,,,,,1881.194,1881.695,1881.944,1885.761,space,3.801,,1885.761,17,48,1886.761,1886.761,1886.764,,,,0,14,14,14,1,20,85,,,,,,,,
,,60d336457da539b0a93cb7d3,65af53a4be6af047326a987b,2024-01-23_07h51.07.800,bars,2023.2.3,Win32,166.6666667,657b66ea316d21385b68909f,,,,,,,,,,,1886.764,1887.76,,,1888.261,1888.511,,118,-62,,,,,,,,,,,,,,,,bars/002.png,bars/mask007.png,,,,,,,,,,,,6,1,,,,,,,10,4,10,6,,,,,,,,,,,1887.76,1888.261,1888.511,1891.611,space,3.085,,1891.611,12,33,1892.627,1892.627,1892.63,,,,0,15,15,15,1,130,85,,,,,,,,
,,60d336457da539b0a93cb7d3,65af53a4be6af047326a987b,2024-01-23_07h51.07.800,bars,2023.2.3,Win32,166.6666667,657b66ea316d21385b68909f,,,,,,,,,,,1892.631,1893.627,,,1894.127,1894.377,,151,151,,,,,,,,,,,,,,,,bars/038.png,bars/mask000.png,,,,,,,,,,,,5,1,,,,,,,10,2,10,2,,,,,,,,,,,1893.627,1894.127,1894.377,1896.66,space,2.267,,1896.66,14,81,1897.66,1897.66,1897.663,,,,0,16,16,16,1,165,70,,,,,,,,
,,60d336457da539b0a93cb7d3,65af53a4be6af047326a987b,2024-01-23_07h51.07.800,bars,2023.2.3,Win32,166.6666667,657b66ea316d21385b68909f,,,,,,,,,,,1897.663,1898.661,,,1899.16,1899.41,,61,61,,,,,,,,,,,,,,,,bars/026.png,bars/mask009.png,,,,,,,,,,,,0,2,,,,,,,8,0,6,0,,,,,,,,,,,1898.661,1899.16,1899.41,1903.36,space,3.934,,1903.36,26,24,1904.361,1904.361,1904.364,,,,0,17,17,17,1,35,85,,,,,,,,
,,60d336457da539b0a93cb7d3,65af53a4be6af047326a987b,2024-01-23_07h51.07.800,bars,2023.2.3,Win32,166.6666667,657b66ea316d21385b68909f,,,,,,,,,,,1904.364,1905.36,,,1905.86,1906.11,,134,134,,,,,,,,,,,,,,,,bars/002.png,bars/mask008.png,,,,,,,,,,,,9,1,,,,,,,10,2,10,3,,,,,,,,,,,1905.36,1905.86,1906.11,1907.394,space,1.268,,1907.394,4,49,1908.394,1908.394,1908.394,,,,0,18,18,18,1,130,85,,,,,,,,
,,60d336457da539b0a93cb7d3,65af53a4be6af047326a987b,2024-01-23_07h51.07.800,bars,2023.2.3,Win32,166.6666667,657b66ea316d21385b68909f,,,,,,,,,,,1908.394,1909.394,,,1909.893,1910.127,,111,111,,,,,,,,,,,,,,,,bars/008.png,bars/mask008.png,,,,,,,,,,,,10,1,,,,,,,10,4,10,7,,,,,,,,,,,1909.394,1909.893,1910.127,1912.793,space,2.651,,1912.793,1,69,1913.794,1913.794,1913.796,,,,0,19,19,19,1,110,0,,,,,,,,
,,60d336457da539b0a93cb7d3,65af53a4be6af047326a987b,2024-01-23_07h51.07.800,bars,2023.2.3,Win32,166.6666667,657b66ea316d21385b68909f,,,,,,,,,,,1913.797,1914.793,,,1915.293,1915.543,,129,129,,,,,,,,,,,,,,,,bars/034.png,bars/mask007.png,,,,,,,,,,,,7,1,,,,,,,8,6,8,5,,,,,,,,,,,1914.793,1915.293,1915.543,1917.327,space,1.767,,1917.327,4,64,1918.311,1918.311,1918.315,,,,0,20,20,20,1,125,65,,,,,,,,
,,60d336457da539b0a93cb7d3,65af53a4be6af047326a987b,2024-01-23_07h51.07.800,bars,2023.2.3,Win32,166.6666667,657b66ea316d21385b68909f,,,,,,,,,,,1918.315,1919.309,,,1919.81,1920.043,,66,66,,,,,,,,,,,,,,,,bars/029.png,bars/mask006.png,,,,,,,,,,,,2,2,,,,,,,6,8,6,8,,,,,,,,,,,1919.309,1919.81,1920.043,1923.259,space,3.2,,1923.259,24,21,1924.242,1924.242,1924.246,,,,0,21,21,21,1,90,45,,,,,,,,
,,60d336457da539b0a93cb7d3,65af53a4be6af047326a987b,2024-01-23_07h51.07.800,bars,2023.2.3,Win32,166.6666667,657b66ea316d21385b68909f,,,,,,,,,,,1924.247,1925.242,,,1925.743,1925.992,,20,20,,,,,,,,,,,,,,,,bars/007.png,bars/mask005.png,,,,,,,,,,,,1,1,,,,,,,4,6,4,7,,,,,,,,,,,1925.243,1925.743,1925.992,1928.993,space,2.983,,1928.993,25,35,1929.992,1929.992,1929.997,,,,0,22,22,22,1,175,55,,,,,,,,
,,60d336457da539b0a93cb7d3,65af53a4be6af047326a987b,2024-01-23_07h51.07.800,bars,2023.2.3,Win32,166.6666667,657b66ea316d21385b68909f,,,,,,,,,,,1929.997,1930.992,,,1931.493,1931.742,,57,237,,,,,,,,,,,,,,,,bars/025.png,bars/mask002.png,,,,,,,,,,,,2,2,,,,,,,6,4,7,4,,,,,,,,,,,1930.992,1931.493,1931.742,1934.91,space,3.151,,1934.91,48,17,1935.909,1935.909,1935.913,,,,0,23,23,23,1,105,40,,,,,,,,
,,60d336457da539b0a93cb7d3,65af53a4be6af047326a987b,2024-01-23_07h51.07.800,bars,2023.2.3,Win32,166.6666667,657b66ea316d21385b68909f,,,,,,,,,,,1935.913,1936.909,,,1937.408,1937.658,,68,248,,,,,,,,,,,,,,,,bars/010.png,bars/mask009.png,,,,,,,,,,,,3,2,,,,,,,4,6,4,5,,,,,,,,,,,1936.909,1937.408,1937.658,1942.592,space,4.917,,1942.592,83,13,1943.592,1943.592,1943.596,,,,0,24,24,24,1,165,55,,,,,,,,
,,60d336457da539b0a93cb7d3,65af53a4be6af047326a987b,2024-01-23_07h51.07.800,bars,2023.2.3,Win32,166.6666667,657b66ea316d21385b68909f,,,,,,,,,,,1943.596,1944.592,,,1945.092,1945.341,,120,-60,,,,,,,,,,,,,,,,bars/049.png,bars/mask008.png,,,,,,,,,,,,6,2,,,,,,,6,8,5,7,,,,,,,,,,,1944.592,1945.092,1945.341,1948.892,space,3.534,,1948.892,40,5,1949.892,1949.892,1949.896,,,,0,25,25,25,1,160,115,,,,,,,,
,,60d336457da539b0a93cb7d3,65af53a4be6af047326a987b,2024-01-23_07h51.07.800,bars,2023.2.3,Win32,166.6666667,657b66ea316d21385b68909f,,,,,,,,,,,1949.896,1950.892,,,1951.392,1951.642,,59,239,,,,,,,,,,,,,,,,bars/029.png,bars/mask003.png,,,,,,,,,,,,5,2,,,,,,,4,10,4,9,,,,,,,,,,,1950.892,1951.392,1951.642,1955.092,space,3.434,,1955.092,31,14,1956.092,1956.092,1956.095,,,,0,26,26,26,1,90,45,,,,,,,,
,,60d336457da539b0a93cb7d3,65af53a4be6af047326a987b,2024-01-23_07h51.07.800,bars,2023.2.3,Win32,166.6666667,657b66ea316d21385b68909f,,,,,,,,,,,1956.095,1957.092,,,1957.592,1957.842,,64,244,,,,,,,,,,,,,,,,bars/046.png,bars/mask007.png,,,,,,,,,,,,3,2,,,,,,,6,10,6,10,,,,,,,,,,,1957.092,1957.592,1957.842,1962.942,space,5.084,,1962.942,89,21,1963.941,1963.941,1963.945,,,,0,27,27,27,1,155,85,,,,,,,,
,,60d336457da539b0a93cb7d3,65af53a4be6af047326a987b,2024-01-23_07h51.07.800,bars,2023.2.3,Win32,166.6666667,657b66ea316d21385b68909f,,,,,,,,,,,1963.945,1964.941,,,1965.442,1965.692,,65,65,,,,,,,,,,,,,,,,bars/030.png,bars/mask001.png,,,,,,,,,,,,9,2,,,,,,,4,8,4,9,,,,,,,,,,,1964.941,1965.442,1965.692,1968.325,space,2.617,,1968.325,75,0,1969.325,1969.325,1969.328,,,,0,28,28,28,1,140,65,,,,,,,,
,,60d336457da539b0a93cb7d3,65af53a4be6af047326a987b,2024-01-23_07h51.07.800,bars,2023.2.3,Win32,166.6666667,657b66ea316d21385b68909f,,,,,,,,,,,1969.328,1970.325,,,1970.825,1971.091,,106,106,,,,,,,,,,,,,,,,bars/018.png,bars/mask003.png,,,,,,,,,,,,5,2,,,,,,,6,10,6,10,,,,,,,,,,,1970.325,1970.825,1971.091,1975.008,space,3.899,,1975.008,44,16,1976.008,1976.008,1976.011,,,,0,29,29,29,1,150,90,,,,,,,,
,,60d336457da539b0a93cb7d3,65af53a4be6af047326a987b,2024-01-23_07h51.07.800,bars,2023.2.3,Win32,166.6666667,657b66ea316d21385b68909f,,,,,,,,,,,1976.011,1977.007,,,1977.507,1977.757,,137,-43,,,,,,,,,,,,,,,,bars/023.png,bars/mask006.png,,,,,,,,,,,,2,2,,,,,,,8,8,7,7,,,,,,,,,,,1977.007,1977.507,1977.757,1980.474,space,2.7,,1980.474,63,22,1981.474,1981.474,1981.478,,,,0,30,30,30,1,20,115,,,,,,,,
,,60d336457da539b0a93cb7d3,65af53a4be6af047326a987b,2024-01-23_07h51.07.800,bars,2023.2.3,Win32,166.6666667,657b66ea316d21385b68909f,,,,,,,,,,,1981.478,1982.491,,,1982.991,1983.241,,119,119,,,,,,,,,,,,,,,,bars/023.png,bars/mask006.png,,,,,,,,,,,,7,2,,,,,,,10,6,10,8,,,,,,,,,,,1982.491,1982.991,1983.241,1985.658,space,2.401,,1985.658,81,4,1986.656,1986.656,1986.657,,,,0,31,31,31,1,20,115,,,,,,,,
,,60d336457da539b0a93cb7d3,65af53a4be6af047326a987b,2024-01-23_07h51.07.800,bars,2023.2.3,Win32,166.6666667,657b66ea316d21385b68909f,,,,,,,,,,,1986.657,1987.657,,,1988.157,1988.407,,105,105,,,,,,,,,,,,,,,,bars/034.png,bars/mask002.png,,,,,,,,,,,,3,1,,,,,,,8,8,8,8,,,,,,,,,,,1987.657,1988.157,1988.407,1992.224,space,3.799,,1992.224,20,40,1993.224,1993.224,1993.228,,,,0,32,32,32,1,125,65,,,,,,,,
,,60d336457da539b0a93cb7d3,65af53a4be6af047326a987b,2024-01-23_07h51.07.800,bars,2023.2.3,Win32,166.6666667,657b66ea316d21385b68909f,,,,,,,,,,,1993.228,1994.224,,,1994.723,1994.973,,156,-24,,,,,,,,,,,,,,,,bars/033.png,bars/mask008.png,,,,,,,,,,,,8,2,,,,,,,6,10,6,8,,,,,,,,,,,1994.224,1994.723,1994.973,1997.824,space,2.834,,1997.824,49,1,1998.824,1998.824,1998.828,,,,0,33,33,33,1,25,155,,,,,,,,
,,60d336457da539b0a93cb7d3,65af53a4be6af047326a987b,2024-01-23_07h51.07.800,bars,2023.2.3,Win32,166.6666667,657b66ea316d21385b68909f,,,,,,,,,,,1998.828,1999.823,,,2000.323,2000.557,,79,79,,,,,,,,,,,,,,,,bars/041.png,bars/mask007.png,,,,,,,,,,,,6,2,,,,,,,4,10,3,8,,,,,,,,,,,1999.823,2000.323,2000.557,2003.241,space,2.667,,2003.241,59,6,2004.24,2004.24,2004.243,,,,0,34,34,34,1,20,85,,,,,,,,
,,60d336457da539b0a93cb7d3,65af53a4be6af047326a987b,2024-01-23_07h51.07.800,bars,2023.2.3,Win32,166.6666667,657b66ea316d21385b68909f,,,,,,,,,,,2004.244,2005.24,,,2005.74,2005.973,,144,-36,,,,,,,,,,,,,,,,bars/043.png,bars/mask004.png,,,,,,,,,,,,4,2,,,,,,,6,8,5,8,,,,,,,,,,,2005.24,2005.74,2005.973,2008.874,space,2.885,,2008.874,66,14,2009.873,2009.873,2009.876,,,,0,35,35,35,1,30,130,,,,,,,,
,,60d336457da539b0a93cb7d3,65af53a4be6af047326a987b,2024-01-23_07h51.07.800,bars,2023.2.3,Win32,166.6666667,657b66ea316d21385b68909f,,,,,,,,,,,2009.876,2010.874,,,2011.373,2011.623,,48,48,,,,,,,,,,,,,,,,bars/031.png,bars/mask006.png,,,,,,,,,,,,6,2,,,,,,,8,10,9,10,,,,,,,,,,,2010.874,2011.373,2011.623,2014.524,space,2.884,,2014.524,72,13,2015.523,2015.523,2015.527,,,,0,36,36,36,1,120,35,,,,,,,,
,,60d336457da539b0a93cb7d3,65af53a4be6af047326a987b,2024-01-23_07h51.07.800,bars,2023.2.3,Win32,166.6666667,657b66ea316d21385b68909f,,,,,,,,,,,2015.527,2016.523,,,2017.023,2017.273,,141,141,,,,,,,,,,,,,,,,bars/043.png,bars/mask009.png,,,,,,,,,,,,6,2,,,,,,,10,10,10,10,,,,,,,,,,,2016.523,2017.023,2017.273,2018.573,space,1.284,,2018.573,69,11,2019.573,2019.573,2019.576,,,,0,37,37,37,1,30,130,,,,,,,,
,,60d336457da539b0a93cb7d3,65af53a4be6af047326a987b,2024-01-23_07h51.07.800,bars,2023.2.3,Win32,166.6666667,657b66ea316d21385b68909f,,,,,,,,,,,2019.576,2020.573,,,2021.073,2021.323,,137,137,,,,,,,,,,,,,,,,bars/004.png,bars/mask005.png,,,,,,,,,,,,6,2,,,,,,,8,10,7,10,,,,,,,,,,,2020.573,2021.073,2021.323,2022.606,space,1.267,,2022.606,68,12,2023.606,2023.606,2023.609,,,,0,38,38,38,1,25,125,,,,,,,,
,,60d336457da539b0a93cb7d3,65af53a4be6af047326a987b,2024-01-23_07h51.07.800,bars,2023.2.3,Win32,166.6666667,657b66ea316d21385b68909f,,,,,,,,,,,2023.61,2024.606,,,2025.105,2025.356,,121,-59,,,,,,,,,,,,,,,,bars/037.png,bars/mask007.png,,,,,,,,,,,,4,2,,,,,,,10,8,9,9,,,,,,,,,,,2024.606,2025.105,2025.356,2029.673,space,4.301,,2029.673,29,16,2030.672,2030.672,2030.676,,,,0,39,39,39,1,150,105,,,,,,,,
,,60d336457da539b0a93cb7d3,65af53a4be6af047326a987b,2024-01-23_07h51.07.800,bars,2023.2.3,Win32,166.6666667,657b66ea316d21385b68909f,,,,,,,,,,,2030.676,2031.673,,,2032.172,2032.422,,145,145,,,,,,,,,,,,,,,,bars/005.png,bars/mask005.png,,,,,,,,,,,,5,2,,,,,,,8,6,7,6,,,,,,,,,,,2031.673,2032.172,2032.422,2034.439,space,2,,2034.439,45,5,2035.438,2035.438,2035.442,,,,0,40,40,40,1,10,140,,,,,,,,
,,60d336457da539b0a93cb7d3,65af53a4be6af047326a987b,2024-01-23_07h51.07.800,bars,2023.2.3,Win32,166.6666667,657b66ea316d21385b68909f,,,,,,,,,,,2035.442,2036.439,,,2036.938,2037.188,,68,68,,,,,,,,,,,,,,,,bars/034.png,bars/mask001.png,,,,,,,,,,,,4,2,,,,,,,6,4,6,4,,,,,,,,,,,2036.439,2036.938,2037.188,2040.055,space,2.85,,2040.055,57,3,2041.055,2041.055,2041.059,,,,0,41,41,41,1,125,65,,,,,,,,
,,60d336457da539b0a93cb7d3,65af53a4be6af047326a987b,2024-01-23_07h51.07.800,bars,2023.2.3,Win32,166.6666667,657b66ea316d21385b68909f,,,,,,,,,,,2041.059,2042.055,,,2042.555,2042.805,,154,154,,,,,,,,,,,,,,,,bars/011.png,bars/mask006.png,,,,,,,,,,,,2,1,,,,,,,4,2,3,3,,,,,,,,,,,2042.055,2042.555,2042.805,2044.588,space,1.766,,2044.588,6,69,2045.589,2045.589,2045.593,,,,0,42,42,42,1,160,85,,,,,,,,
,,60d336457da539b0a93cb7d3,65af53a4be6af047326a987b,2024-01-23_07h51.07.800,bars,2023.2.3,Win32,166.6666667,657b66ea316d21385b68909f,,,,,,,,,,,2045.593,2046.589,,,2047.088,2047.339,,97,97,,,,,,,,,,,,,,,,bars/041.png,bars/mask007.png,,,,,,,,,,,,0,2,,,,,,,6,0,6,0,,,,,,,,,,,2046.589,2047.088,2047.339,2049.905,space,2.55,,2049.905,77,12,2050.905,2050.905,2050.909,,,,0,43,43,43,1,20,85,,,,,,,,
,,60d336457da539b0a93cb7d3,65af53a4be6af047326a987b,2024-01-23_07h51.07.800,bars,2023.2.3,Win32,166.6666667,657b66ea316d21385b68909f,,,,,,,,,,,2050.909,2051.905,,,2052.405,2052.655,,36,36,,,,,,,,,,,,,,,,bars/005.png,bars/mask009.png,,,,,,,,,,,,0,1,,,,,,,4,2,2,2,,,,,,,,,,,2051.905,2052.405,2052.655,2054.722,space,2.05,,2054.722,26,76,2055.722,2055.722,2055.727,,,,0,44,44,44,1,10,140,,,,,,,,
,,60d336457da539b0a93cb7d3,65af53a4be6af047326a987b,2024-01-23_07h51.07.800,bars,2023.2.3,Win32,166.6666667,657b66ea316d21385b68909f,,,,,,,,,,,2055.727,2056.721,,,2057.21,2057.471,,157,157,,,,,,,,,,,,,,,,bars/020.png,bars/mask005.png,,,,,,,,,,,,1,2,,,,,,,2,0,1,1,,,,,,,,,,,2056.722,2057.21,2057.471,2059.355,space,1.867,,2059.355,42,13,2060.337,2060.337,2060.342,,,,0,45,45,45,1,115,170,,,,,,,,
,,60d336457da539b0a93cb7d3,65af53a4be6af047326a987b,2024-01-23_07h51.07.800,bars,2023.2.3,Win32,166.6666667,657b66ea316d21385b68909f,,,,,,,,,,,2060.342,2061.338,,,2061.838,2062.088,,10,10,,,,,,,,,,,,,,,,bars/014.png,bars/mask008.png,,,,,,,,,,,,1,2,,,,,,,0,2,0,2,,,,,,,,,,,2061.338,2061.838,2062.088,2065.355,space,3.25,,2065.355,70,10,2066.371,2066.371,2066.374,,,,0,46,46,46,1,80,0,,,,,,,,
,,60d336457da539b0a93cb7d3,65af53a4be6af047326a987b,2024-01-23_07h51.07.800,bars,2023.2.3,Win32,166.6666667,657b66ea316d21385b68909f,,,,,,,,,,,2066.374,2067.371,,,2067.872,2068.121,,67,67,,,,,,,,,,,,,,,,bars/046.png,bars/mask005.png,,,,,,,,,,,,2,2,,,,,,,2,4,3,4,,,,,,,,,,,2067.371,2067.872,2068.121,2070.722,space,2.583,,2070.722,88,18,2071.721,2071.721,2071.724,,,,0,47,47,47,1,155,85,,,,,,,,
,,60d336457da539b0a93cb7d3,65af53a4be6af047326a987b,2024-01-23_07h51.07.800,bars,2023.2.3,Win32,166.6666667,657b66ea316d21385b68909f,,,,,,,,,,,2071.724,2072.721,,,2073.221,2073.471,,87,87,,,,,,,,,,,,,,,,bars/014.png,bars/mask007.png,,,,,,,,,,,,3,1,,,,,,,4,2,4,4,,,,,,,,,,,2072.721,2073.221,2073.471,2074.671,space,1.167,,2074.671,7,87,2075.671,2075.671,2075.672,,,,0,48,48,48,1,80,0,,,,,,,,
,,60d336457da539b0a93cb7d3,65af53a4be6af047326a987b,2024-01-23_07h51.07.800,bars,2023.2.3,Win32,166.6666667,657b66ea316d21385b68909f,,,,,,,,,,,2075.672,2076.671,,,2077.171,2077.42,,115,115,,,,,,,,,,,,,,,,bars/008.png,bars/mask009.png,,,,,,,,,,,,6,1,,,,,,,6,4,7,3,,,,,,,,,,,2076.671,2077.171,2077.42,2081.02,space,3.582,,2081.021,5,65,2082.02,2082.02,2082.024,,,,0,49,49,49,1,110,0,,,,,,,,
,,60d336457da539b0a93cb7d3,65af53a4be6af047326a987b,2024-01-23_07h51.07.800,bars,2023.2.3,Win32,166.6666667,657b66ea316d21385b68909f,,,,,,,,,,,,,,,,,,,,,,,,,,,,,,,,,,,,,,,,,,,,,,,,,,,,,,,,,,,,,,,,,,,,,,,,,,,,,,,,,,,,,,,,,,,,,2082.024,2142.019,0,2,2,0,1,sequence_tables/blk025.csv
,,60d336457da539b0a93cb7d3,65af53a4be6af047326a987b,2024-01-23_07h51.07.800,bars,2023.2.3,Win32,166.6666667,657b66ea316d21385b68909f,,,,,,,,,,,2143.221,2144.218,,,2144.719,2144.968,,70,70,,,,,,,,,,,,,,,,bars/019.png,bars/mask002.png,,,,,,,,,,,,2,1,,,,,,,10,7,10,8,,,,,,2142.024,2143.219,space,1.183,,2144.218,2144.719,2144.968,2148.785,space,3.8,,2148.785,25,35,2149.785,2149.785,2149.789,,,,0,0,0,0,1,45,105,,,,,,,,
,,60d336457da539b0a93cb7d3,65af53a4be6af047326a987b,2024-01-23_07h51.07.800,bars,2023.2.3,Win32,166.6666667,657b66ea316d21385b68909f,,,,,,,,,,,2149.789,2150.785,,,2151.285,2151.535,,159,-21,,,,,,,,,,,,,,,,bars/039.png,bars/mask008.png,,,,,,,,,,,,5,1,,,,,,,10,5,10,6,,,,,,,,,,,2150.785,2151.285,2151.535,2154.752,space,3.201,,2154.752,16,54,2155.751,2155.751,2155.755,,,,0,1,1,1,1,175,105,,,,,,,,
,,60d336457da539b0a93cb7d3,65af53a4be6af047326a987b,2024-01-23_07h51.07.800,bars,2023.2.3,Win32,166.6666667,657b66ea316d21385b68909f,,,,,,,,,,,2155.755,2156.752,,,2157.252,2157.502,,149,-31,,,,,,,,,,,,,,,,bars/009.png,bars/mask009.png,,,,,,,,,,,,0,2,,,,,,,10,3,9,3,,,,,,,,,,,2156.752,2157.252,2157.502,2160.302,space,2.783,,2160.302,46,44,2161.301,2161.301,2161.305,,,,0,2,2,2,1,15,105,,,,,,,,
,,60d336457da539b0a93cb7d3,65af53a4be6af047326a987b,2024-01-23_07h51.07.800,bars,2023.2.3,Win32,166.6666667,657b66ea316d21385b68909f,,,,,,,,,,,2161.305,2162.301,,,2162.801,2163.068,,117,117,,,,,,,,,,,,,,,,bars/034.png,bars/mask009.png,,,,,,,,,,,,4,1,,,,,,,8,1,6,0,,,,,,,,,,,2162.301,2162.801,2163.068,2164.818,space,1.733,,2164.818,8,52,2165.818,2165.818,2165.819,,,,0,3,3,3,1,125,65,,,,,,,,
,,60d336457da539b0a93cb7d3,65af53a4be6af047326a987b,2024-01-23_07h51.07.800,bars,2023.2.3,Win32,166.6666667,657b66ea316d21385b68909f,,,,,,,,,,,2165.819,2166.818,,,2167.303,2167.551,,97,97,,,,,,,,,,,,,,,,bars/013.png,bars/mask005.png,,,,,,,,,,,,3,1,,,,,,,10,0,10,1,,,,,,,,,,,2166.818,2167.303,2167.551,2169.618,space,2.051,,2169.618,22,87,2170.618,2170.618,2170.621,,,,0,4,4,4,1,75,10,,,,,,,,
,,60d336457da539b0a93cb7d3,65af53a4be6af047326a987b,2024-01-23_07h51.07.800,bars,2023.2.3,Win32,166.6666667,657b66ea316d21385b68909f,,,,,,,,,,,2170.621,2171.618,,,2172.117,2172.368,,167,-13,,,,,,,,,,,,,,,,bars/018.png,bars/mask008.png,,,,,,,,,,,,4,1,,,,,,,8,0,9,1,,,,,,,,,,,2171.618,2172.117,2172.368,2174.334,space,1.934,,2174.334,17,77,2175.335,2175.335,2175.337,,,,0,5,5,5,1,150,90,,,,,,,,
,,60d336457da539b0a93cb7d3,65af53a4be6af047326a987b,2024-01-23_07h51.07.800,bars,2023.2.3,Win32,166.6666667,657b66ea316d21385b68909f,,,,,,,,,,,2175.337,2176.334,,,2176.835,2177.084,,172,172,,,,,,,,,,,,,,,,bars/003.png,bars/mask005.png,,,,,,,,,,,,0,2,,,,,,,6,2,7,2,,,,,,,,,,,2176.334,2176.835,2177.084,2179.434,space,2.334,,2179.434,33,32,2180.434,2180.434,2180.435,,,,0,6,6,6,1,25,140,,,,,,,,
,,60d336457da539b0a93cb7d3,65af53a4be6af047326a987b,2024-01-23_07h51.07.800,bars,2023.2.3,Win32,166.6666667,657b66ea316d21385b68909f,,,,,,,,,,,2180.435,2181.434,,,2181.934,2182.184,,159,159,,,,,,,,,,,,,,,,bars/021.png,bars/mask003.png,,,,,,,,,,,,8,1,,,,,,,8,0,9,0,,,,,,,,,,,2181.434,2181.934,2182.184,2183.117,space,0.917,,2183.117,4,89,2184.117,2184.117,2184.118,,,,0,7,7,7,1,155,70,,,,,,,,
,,60d336457da539b0a93cb7d3,65af53a4be6af047326a987b,2024-01-23_07h51.07.800,bars,2023.2.3,Win32,166.6666667,657b66ea316d21385b68909f,,,,,,,,,,,2184.118,2185.117,,,2185.617,2185.867,,77,77,,,,,,,,,,,,,,,,bars/044.png,bars/mask008.png,,,,,,,,,,,,6,1,,,,,,,6,2,6,2,,,,,,,,,,,2185.117,2185.617,2185.867,2187.267,space,1.383,,2187.268,2,78,2188.267,2188.267,2188.267,,,,0,8,8,8,1,75,155,,,,,,,,
,,60d336457da539b0a93cb7d3,65af53a4be6af047326a987b,2024-01-23_07h51.07.800,bars,2023.2.3,Win32,166.6666667,657b66ea316d21385b68909f,,,,,,,,,,,2188.267,2189.267,,,2189.767,2190.017,,82,82,,,,,,,,,,,,,,,,bars/014.png,bars/mask001.png,,,,,,,,,,,,6,1,,,,,,,8,0,6,0,,,,,,,,,,,2189.267,2189.767,2190.017,2190.617,space,0.584,,2190.617,2,82,2191.617,2191.617,2191.617,,,,0,9,9,9,1,80,0,,,,,,,,
,,60d336457da539b0a93cb7d3,65af53a4be6af047326a987b,2024-01-23_07h51.07.800,bars,2023.2.3,Win32,166.6666667,657b66ea316d21385b68909f,,,,,,,,,,,2191.617,2192.617,,,2193.117,2193.367,,122,122,,,,,,,,,,,,,,,,bars/001.png,bars/mask006.png,,,,,,,,,,,,7,1,,,,,,,10,2,10,1,,,,,,,,,,,2192.617,2193.117,2193.367,2196.317,space,2.934,,2196.317,8,37,2197.334,2197.334,2197.337,,,,0,10,10,10,1,130,85,,,,,,,,
,,60d336457da539b0a93cb7d3,65af53a4be6af047326a987b,2024-01-23_07h51.07.800,bars,2023.2.3,Win32,166.6666667,657b66ea316d21385b68909f,,,,,,,,,,,2197.337,2198.334,,,2198.834,2199.083,,20,20,,,,,,,,,,,,,,,,bars/007.png,bars/mask006.png,,,,,,,,,,,,2,1,,,,,,,10,4,10,4,,,,,,,,,,,2198.334,2198.834,2199.083,2200.717,space,1.618,,2200.717,25,35,2201.717,2201.717,2201.72,,,,0,11,11,11,1,175,55,,,,,,,,
,,60d336457da539b0a93cb7d3,65af53a4be6af047326a987b,2024-01-23_07h51.07.800,bars,2023.2.3,Win32,166.6666667,657b66ea316d21385b68909f,,,,,,,,,,,2201.72,2202.717,,,2203.217,2203.466,,61,61,,,,,,,,,,,,,,,,bars/044.png,bars/mask006.png,,,,,,,,,,,,4,1,,,,,,,10,2,8,2,,,,,,,,,,,2202.717,2203.217,2203.466,2205.25,space,1.767,,2205.25,14,86,2206.249,2206.249,2206.25,,,,0,12,12,12,1,75,155,,,,,,,,
,,60d336457da539b0a93cb7d3,65af53a4be6af047326a987b,2024-01-23_07h51.07.800,bars,2023.2.3,Win32,166.6666667,657b66ea316d21385b68909f,,,,,,,,,,,2206.251,2207.267,,,2207.75,2208,,75,75,,,,,,,,,,,,,,,,bars/012.png,bars/mask000.png,,,,,,,,,,,,4,1,,,,,,,8,4,8,4,,,,,,,,,,,2207.267,2207.75,2208,2211.166,space,3.15,,2211.166,15,60,2212.183,2212.183,2212.186,,,,0,13,13,13,1,90,15,,,,,,,,
,,60d336457da539b0a93cb7d3,65af53a4be6af047326a987b,2024-01-23_07h51.07.800,bars,2023.2.3,Win32,166.6666667,657b66ea316d21385b68909f,,,,,,,,,,,2212.186,2213.183,,,2213.682,2213.933,,69,69,,,,,,,,,,,,,,,,bars/044.png,bars/mask002.png,,,,,,,,,,,,7,1,,,,,,,10,6,9,7,,,,,,,,,,,2213.183,2213.682,2213.933,2216.166,space,2.216,,2216.166,6,86,2217.167,2217.167,2217.17,,,,0,14,14,14,1,75,155,,,,,,,,
,,60d336457da539b0a93cb7d3,65af53a4be6af047326a987b,2024-01-23_07h51.07.800,bars,2023.2.3,Win32,166.6666667,657b66ea316d21385b68909f,,,,,,,,,,,2217.17,2218.149,,,2218.65,2218.899,,25,25,,,,,,,,,,,,,,,,bars/005.png,bars/mask008.png,,,,,,,,,,,,5,1,,,,,,,8,8,9,8,,,,,,,,,,,2218.149,2218.65,2218.9,2223.049,space,4.134,,2223.049,15,65,2224.049,2224.049,2224.052,,,,0,15,15,15,1,10,140,,,,,,,,
,,60d336457da539b0a93cb7d3,65af53a4be6af047326a987b,2024-01-23_07h51.07.800,bars,2023.2.3,Win32,166.6666667,657b66ea316d21385b68909f,,,,,,,,,,,2224.053,2225.049,,,2225.55,2225.799,,158,158,,,,,,,,,,,,,,,,bars/033.png,bars/mask009.png,,,,,,,,,,,,8,2,,,,,,,6,10,8,9,,,,,,,,,,,2225.049,2225.55,2225.799,2227.6,space,1.784,,2227.6,47,3,2228.599,2228.599,2228.6,,,,0,16,16,16,1,25,155,,,,,,,,
,,60d336457da539b0a93cb7d3,65af53a4be6af047326a987b,2024-01-23_07h51.07.800,bars,2023.2.3,Win32,166.6666667,657b66ea316d21385b68909f,,,,,,,,,,,2228.6,2229.582,,,2230.082,2230.332,,74,74,,,,,,,,,,,,,,,,bars/011.png,bars/mask007.png,,,,,,,,,,,,6,2,,,,,,,4,10,3,10,,,,,,,,,,,2229.582,2230.082,2230.332,2233.165,space,2.817,,2233.165,86,11,2234.166,2234.166,2234.169,,,,0,17,17,17,1,160,85,,,,,,,,
,,60d336457da539b0a93cb7d3,65af53a4be6af047326a987b,2024-01-23_07h51.07.800,bars,2023.2.3,Win32,166.6666667,657b66ea316d21385b68909f,,,,,,,,,,,2234.169,2235.166,,,2235.666,2235.915,,15,195,,,,,,,,,,,,,,,,bars/024.png,bars/mask008.png,,,,,,,,,,,,1,2,,,,,,,2,10,1,9,,,,,,,,,,,2235.166,2235.666,2235.915,2238.582,space,2.651,,2238.582,75,25,2239.566,2239.566,2239.57,,,,0,18,18,18,1,120,170,,,,,,,,
,,60d336457da539b0a93cb7d3,65af53a4be6af047326a987b,2024-01-23_07h51.07.800,bars,2023.2.3,Win32,166.6666667,657b66ea316d21385b68909f,,,,,,,,,,,2239.57,2240.565,,,2241.065,2241.315,,56,56,,,,,,,,,,,,,,,,bars/045.png,bars/mask002.png,,,,,,,,,,,,0,1,,,,,,,0,8,0,8,,,,,,,,,,,2240.565,2241.065,2241.315,2243.698,space,2.367,,2243.698,44,46,2244.698,2244.698,2244.702,,,,0,19,19,19,1,100,10,,,,,,,,
,,60d336457da539b0a93cb7d3,65af53a4be6af047326a987b,2024-01-23_07h51.07.800,bars,2023.2.3,Win32,166.6666667,657b66ea316d21385b68909f,,,,,,,,,,,2244.702,2245.698,,,2246.198,2246.448,,145,145,,,,,,,,,,,,,,,,bars/003.png,bars/mask001.png,,,,,,,,,,,,8,2,,,,,,,0,10,1,10,,,,,,,,,,,2245.698,2246.198,2246.448,2248.637,space,2.172,,2248.637,60,5,2249.632,2249.632,2249.633,,,,0,20,20,20,1,25,140,,,,,,,,
,,60d336457da539b0a93cb7d3,65af53a4be6af047326a987b,2024-01-23_07h51.07.800,bars,2023.2.3,Win32,166.6666667,657b66ea316d21385b68909f,,,,,,,,,,,2249.633,2250.631,,,2251.132,2251.381,,128,128,,,,,,,,,,,,,,,,bars/003.png,bars/mask006.png,,,,,,,,,,,,5,2,,,,,,,0,10,0,9,,,,,,,,,,,2250.631,2251.132,2251.381,2254.448,space,3.05,,2254.448,77,12,2255.435,2255.435,2255.438,,,,0,21,21,21,1,25,140,,,,,,,,
,,60d336457da539b0a93cb7d3,65af53a4be6af047326a987b,2024-01-23_07h51.07.800,bars,2023.2.3,Win32,166.6666667,657b66ea316d21385b68909f,,,,,,,,,,,2255.438,2256.431,,,2256.931,2257.181,,118,118,,,,,,,,,,,,,,,,bars/028.png,bars/mask008.png,,,,,,,,,,,,9,2,,,,,,,2,10,2,10,,,,,,,,,,,2256.431,2256.931,2257.181,2260.064,space,2.866,,2260.064,73,2,2261.064,2261.064,2261.068,,,,0,22,22,22,1,45,120,,,,,,,,
,,60d336457da539b0a93cb7d3,65af53a4be6af047326a987b,2024-01-23_07h51.07.800,bars,2023.2.3,Win32,166.6666667,657b66ea316d21385b68909f,,,,,,,,,,,2261.069,2262.065,,,2262.564,2262.798,,163,-17,,,,,,,,,,,,,,,,bars/015.png,bars/mask008.png,,,,,,,,,,,,8,2,,,,,,,4,10,3,9,,,,,,,,,,,2262.065,2262.564,2262.798,2266.047,space,3.233,,2266.047,53,3,2267.047,2267.047,2267.051,,,,0,23,23,23,1,110,160,,,,,,,,
,,60d336457da539b0a93cb7d3,65af53a4be6af047326a987b,2024-01-23_07h51.07.800,bars,2023.2.3,Win32,166.6666667,657b66ea316d21385b68909f,,,,,,,,,,,2267.051,2268.047,,,2268.548,2268.797,,115,115,,,,,,,,,,,,,,,,bars/028.png,bars/mask001.png,,,,,,,,,,,,7,2,,,,,,,2,10,2,8,,,,,,,,,,,2268.047,2268.548,2268.797,2271.581,space,2.767,,2271.581,70,5,2272.581,2272.581,2272.584,,,,0,24,24,24,1,45,120,,,,,,,,
,,60d336457da539b0a93cb7d3,65af53a4be6af047326a987b,2024-01-23_07h51.07.800,bars,2023.2.3,Win32,166.6666667,657b66ea316d21385b68909f,,,,,,,,,,,2272.585,2273.581,,,2274.081,2274.331,,25,205,,,,,,,,,,,,,,,,bars/012.png,bars/mask004.png,,,,,,,,,,,,7,2,,,,,,,0,10,0,10,,,,,,,,,,,2273.581,2274.081,2274.331,2277.1,space,2.753,,2277.1,65,10,2278.097,2278.097,2278.101,,,,0,25,25,25,1,90,15,,,,,,,,
,,60d336457da539b0a93cb7d3,65af53a4be6af047326a987b,2024-01-23_07h51.07.800,bars,2023.2.3,Win32,166.6666667,657b66ea316d21385b68909f,,,,,,,,,,,2278.101,2279.097,,,2279.597,2279.847,,70,70,,,,,,,,,,,,,,,,bars/034.png,bars/mask005.png,,,,,,,,,,,,8,2,,,,,,,0,10,0,10,,,,,,,,,,,2279.097,2279.597,2279.847,2281.864,space,2,,2281.864,55,5,2282.864,2282.864,2282.867,,,,0,26,26,26,1,125,65,,,,,,,,
,,60d336457da539b0a93cb7d3,65af53a4be6af047326a987b,2024-01-23_07h51.07.800,bars,2023.2.3,Win32,166.6666667,657b66ea316d21385b68909f,,,,,,,,,,,2282.867,2283.863,,,2284.364,2284.597,,157,-23,,,,,,,,,,,,,,,,bars/020.png,bars/mask002.png,,,,,,,,,,,,3,2,,,,,,,0,8,0,6,,,,,,,,,,,2283.863,2284.364,2284.597,2286.464,space,1.851,,2286.464,42,13,2287.451,2287.451,2287.452,,,,0,27,27,27,1,115,170,,,,,,,,
,,60d336457da539b0a93cb7d3,65af53a4be6af047326a987b,2024-01-23_07h51.07.800,bars,2023.2.3,Win32,166.6666667,657b66ea316d21385b68909f,,,,,,,,,,,2287.452,2288.446,,,2288.947,2289.18,,77,77,,,,,,,,,,,,,,,,bars/011.png,bars/mask008.png,,,,,,,,,,,,4,2,,,,,,,2,6,2,5,,,,,,,,,,,2288.446,2288.947,2289.18,2290.914,space,1.717,,2290.914,83,8,2291.914,2291.914,2291.914,,,,0,28,28,28,1,160,85,,,,,,,,
,,60d336457da539b0a93cb7d3,65af53a4be6af047326a987b,2024-01-23_07h51.07.800,bars,2023.2.3,Win32,166.6666667,657b66ea316d21385b68909f,,,,,,,,,,,2291.914,2292.914,,,2293.414,2293.663,,2,2,,,,,,,,,,,,,,,,bars/040.png,bars/mask000.png,,,,,,,,,,,,7,2,,,,,,,0,8,0,8,,,,,,,,,,,2292.914,2293.414,2293.663,2297.096,space,3.416,,2297.096,42,3,2298.096,2298.096,2298.1,,,,0,29,29,29,1,140,5,,,,,,,,
,,60d336457da539b0a93cb7d3,65af53a4be6af047326a987b,2024-01-23_07h51.07.800,bars,2023.2.3,Win32,166.6666667,657b66ea316d21385b68909f,,,,,,,,,,,2298.1,2299.096,,,2299.597,2299.846,,49,229,,,,,,,,,,,,,,,,bars/025.png,bars/mask004.png,,,,,,,,,,,,5,2,,,,,,,0,6,0,7,,,,,,,,,,,2299.096,2299.597,2299.846,2303.43,space,3.567,,2303.43,56,9,2304.43,2304.43,2304.433,,,,0,30,30,30,1,105,40,,,,,,,,
,,60d336457da539b0a93cb7d3,65af53a4be6af047326a987b,2024-01-23_07h51.07.800,bars,2023.2.3,Win32,166.6666667,657b66ea316d21385b68909f,,,,,,,,,,,2304.433,2305.43,,,2305.93,2306.18,,59,59,,,,,,,,,,,,,,,,bars/029.png,bars/mask009.png,,,,,,,,,,,,5,2,,,,,,,0,8,1,10,,,,,,,,,,,2305.43,2305.93,2306.18,2307.263,space,1.067,,2307.263,31,14,2308.263,2308.263,2308.263,,,,0,31,31,31,1,90,45,,,,,,,,
,,60d336457da539b0a93cb7d3,65af53a4be6af047326a987b,2024-01-23_07h51.07.800,bars,2023.2.3,Win32,166.6666667,657b66ea316d21385b68909f,,,,,,,,,,,2308.263,2309.263,,,2309.763,2310.013,,55,55,,,,,,,,,,,,,,,,bars/010.png,bars/mask000.png,,,,,,,,,,,,10,2,,,,,,,0,10,0,10,,,,,,,,,,,2309.263,2309.763,2310.013,2313.23,space,3.2,,2313.23,70,0,2314.23,2314.23,2314.233,,,,0,32,32,32,1,165,55,,,,,,,,
,,60d336457da539b0a93cb7d3,65af53a4be6af047326a987b,2024-01-23_07h51.07.800,bars,2023.2.3,Win32,166.6666667,657b66ea316d21385b68909f,,,,,,,,,,,2314.233,2315.229,,,2315.729,2315.98,,52,52,,,,,,,,,,,,,,,,bars/010.png,bars/mask006.png,,,,,,,,,,,,8,2,,,,,,,0,10,0,9,,,,,,,,,,,2315.229,2315.729,2315.98,2319.646,space,3.65,,2319.646,67,3,2320.646,2320.646,2320.65,,,,0,33,33,33,1,165,55,,,,,,,,
,,60d336457da539b0a93cb7d3,65af53a4be6af047326a987b,2024-01-23_07h51.07.800,bars,2023.2.3,Win32,166.6666667,657b66ea316d21385b68909f,,,,,,,,,,,2320.65,2321.663,,,2322.162,2322.413,,73,73,,,,,,,,,,,,,,,,bars/046.png,bars/mask001.png,,,,,,,,,,,,4,2,,,,,,,2,8,1,7,,,,,,,,,,,2321.663,2322.162,2322.413,2325.996,space,3.567,,2325.996,82,12,2326.996,2326.996,2327,,,,0,34,34,34,1,155,85,,,,,,,,
,,60d336457da539b0a93cb7d3,65af53a4be6af047326a987b,2024-01-23_07h51.07.800,bars,2023.2.3,Win32,166.6666667,657b66ea316d21385b68909f,,,,,,,,,,,2327,2327.995,,,2328.496,2328.735,,53,53,,,,,,,,,,,,,,,,bars/027.png,bars/mask002.png,,,,,,,,,,,,6,2,,,,,,,0,6,0,7,,,,,,,,,,,2327.995,2328.496,2328.735,2332.829,space,4.083,,2332.829,57,3,2333.845,2333.845,2333.849,,,,0,35,35,35,1,110,50,,,,,,,,
,,60d336457da539b0a93cb7d3,65af53a4be6af047326a987b,2024-01-23_07h51.07.800,bars,2023.2.3,Win32,166.6666667,657b66ea316d21385b68909f,,,,,,,,,,,2333.849,2334.845,,,2335.346,2335.595,,104,104,,,,,,,,,,,,,,,,bars/011.png,bars/mask006.png,,,,,,,,,,,,3,2,,,,,,,0,8,2,8,,,,,,,,,,,2334.845,2335.346,2335.595,2336.395,space,0.783,,2336.395,56,19,2337.396,2337.396,2337.396,,,,0,36,36,36,1,160,85,,,,,,,,
,,60d336457da539b0a93cb7d3,65af53a4be6af047326a987b,2024-01-23_07h51.07.800,bars,2023.2.3,Win32,166.6666667,657b66ea316d21385b68909f,,,,,,,,,,,2337.396,2338.396,,,2338.895,2339.145,,115,115,,,,,,,,,,,,,,,,bars/028.png,bars/mask007.png,,,,,,,,,,,,6,2,,,,,,,0,6,0,7,,,,,,,,,,,2338.396,2338.895,2339.145,2340.512,space,1.351,,2340.512,70,5,2341.512,2341.512,2341.515,,,,0,37,37,37,1,45,120,,,,,,,,
,,60d336457da539b0a93cb7d3,65af53a4be6af047326a987b,2024-01-23_07h51.07.800,bars,2023.2.3,Win32,166.6666667,657b66ea316d21385b68909f,,,,,,,,,,,2341.516,2342.512,,,2343.012,2343.261,,108,108,,,,,,,,,,,,,,,,bars/049.png,bars/mask005.png,,,,,,,,,,,,7,2,,,,,,,0,8,1,9,,,,,,,,,,,2342.512,2343.012,2343.261,2345.529,space,2.251,,2345.529,52,7,2346.528,2346.528,2346.532,,,,0,38,38,38,1,160,115,,,,,,,,
,,60d336457da539b0a93cb7d3,65af53a4be6af047326a987b,2024-01-23_07h51.07.800,bars,2023.2.3,Win32,166.6666667,657b66ea316d21385b68909f,,,,,,,,,,,2346.532,2347.528,,,2348.029,2348.28,,119,119,,,,,,,,,,,,,,,,bars/004.png,bars/mask001.png,,,,,,,,,,,,6,2,,,,,,,2,6,2,7,,,,,,,,,,,2347.528,2348.029,2348.28,2350.561,space,2.267,,2350.561,86,6,2351.561,2351.561,2351.565,,,,0,39,39,39,1,25,125,,,,,,,,
,,60d336457da539b0a93cb7d3,65af53a4be6af047326a987b,2024-01-23_07h51.07.800,bars,2023.2.3,Win32,166.6666667,657b66ea316d21385b68909f,,,,,,,,,,,2351.565,2352.562,,,2353.062,2353.311,,96,96,,,,,,,,,,,,,,,,bars/041.png,bars/mask007.png,,,,,,,,,,,,2,2,,,,,,,4,4,5,3,,,,,,,,,,,2352.562,2353.062,2353.311,2355.529,space,2.202,,2355.529,76,11,2356.528,2356.528,2356.532,,,,0,40,40,40,1,20,85,,,,,,,,
,,60d336457da539b0a93cb7d3,65af53a4be6af047326a987b,2024-01-23_07h51.07.800,bars,2023.2.3,Win32,166.6666667,657b66ea316d21385b68909f,,,,,,,,,,,2356.532,2357.528,,,2358.028,2358.295,,31,31,,,,,,,,,,,,,,,,bars/045.png,bars/mask002.png,,,,,,,,,,,,2,2,,,,,,,2,6,1,7,,,,,,,,,,,2357.528,2358.028,2358.295,2361.594,space,3.283,,2361.594,69,21,2362.595,2362.595,2362.598,,,,0,41,41,41,1,100,10,,,,,,,,
,,60d336457da539b0a93cb7d3,65af53a4be6af047326a987b,2024-01-23_07h51.07.800,bars,2023.2.3,Win32,166.6666667,657b66ea316d21385b68909f,,,,,,,,,,,2362.599,2363.595,,,2364.094,2364.344,,36,216,,,,,,,,,,,,,,,,bars/017.png,bars/mask005.png,,,,,,,,,,,,2,2,,,,,,,4,4,3,3,,,,,,,,,,,2363.595,2364.094,2364.344,2367.144,space,2.784,,2367.144,71,9,2368.144,2368.144,2368.148,,,,0,42,42,42,1,145,45,,,,,,,,
,,60d336457da539b0a93cb7d3,65af53a4be6af047326a987b,2024-01-23_07h51.07.800,bars,2023.2.3,Win32,166.6666667,657b66ea316d21385b68909f,,,,,,,,,,,2368.148,2369.144,,,2369.644,2369.895,,105,285,,,,,,,,,,,,,,,,bars/019.png,bars/mask009.png,,,,,,,,,,,,6,2,,,,,,,2,6,4,6,,,,,,,,,,,2369.144,2369.644,2369.895,2374.277,space,4.366,,2374.277,60,0,2375.277,2375.277,2375.281,,,,0,43,43,43,1,45,105,,,,,,,,
,,60d336457da539b0a93cb7d3,65af53a4be6af047326a987b,2024-01-23_07h51.07.800,bars,2023.2.3,Win32,166.6666667,657b66ea316d21385b68909f,,,,,,,,,,,2375.281,2376.277,,,2376.777,2377.027,,160,-20,,,,,,,,,,,,,,,,bars/024.png,bars/mask002.png,,,,,,,,,,,,5,2,,,,,,,0,8,0,8,,,,,,,,,,,2376.277,2376.777,2377.027,2379.16,space,2.117,,2379.16,40,10,2380.16,2380.16,2380.164,,,,0,44,44,44,1,120,170,,,,,,,,
,,60d336457da539b0a93cb7d3,65af53a4be6af047326a987b,2024-01-23_07h51.07.800,bars,2023.2.3,Win32,166.6666667,657b66ea316d21385b68909f,,,,,,,,,,,2380.164,2381.161,,,2381.648,2381.894,,119,119,,,,,,,,,,,,,,,,bars/049.png,bars/mask008.png,,,,,,,,,,,,6,2,,,,,,,2,6,1,7,,,,,,,,,,,2381.161,2381.648,2381.894,2384.327,space,2.417,,2384.327,41,4,2385.327,2385.327,2385.328,,,,0,45,45,45,1,160,115,,,,,,,,
,,60d336457da539b0a93cb7d3,65af53a4be6af047326a987b,2024-01-23_07h51.07.800,bars,2023.2.3,Win32,166.6666667,657b66ea316d21385b68909f,,,,,,,,,,,2385.328,2386.314,,,2386.81,2387.061,,110,110,,,,,,,,,,,,,,,,bars/009.png,bars/mask003.png,,,,,,,,,,,,3,2,,,,,,,0,4,0,4,,,,,,,,,,,2386.314,2386.81,2387.061,2389.477,space,2.4,,2389.477,85,5,2390.476,2390.476,2390.48,,,,0,46,46,46,1,15,105,,,,,,,,
,,60d336457da539b0a93cb7d3,65af53a4be6af047326a987b,2024-01-23_07h51.07.800,bars,2023.2.3,Win32,166.6666667,657b66ea316d21385b68909f,,,,,,,,,,,2390.48,2391.493,,,2391.993,2392.244,,112,112,,,,,,,,,,,,,,,,bars/006.png,bars/mask000.png,,,,,,,,,,,,4,2,,,,,,,2,6,2,6,,,,,,,,,,,2391.493,2391.993,2392.244,2394.677,space,2.417,,2394.677,77,12,2395.676,2395.676,2395.677,,,,0,47,47,47,1,35,100,,,,,,,,
,,60d336457da539b0a93cb7d3,65af53a4be6af047326a987b,2024-01-23_07h51.07.800,bars,2023.2.3,Win32,166.6666667,657b66ea316d21385b68909f,,,,,,,,,,,2395.677,2396.676,,,2397.177,2397.426,,53,53,,,,,,,,,,,,,,,,bars/000.png,bars/mask004.png,,,,,,,,,,,,0,1,,,,,,,0,4,0,3,,,,,,,,,,,2396.676,2397.177,2397.426,2398.526,space,1.083,,2398.526,13,88,2399.527,2399.527,2399.527,,,,0,48,48,48,1,40,145,,,,,,,,
,,60d336457da539b0a93cb7d3,65af53a4be6af047326a987b,2024-01-23_07h51.07.800,bars,2023.2.3,Win32,166.6666667,657b66ea316d21385b68909f,,,,,,,,,,,2399.527,2400.527,,,2401.026,2401.276,,122,122,,,,,,,,,,,,,,,,bars/025.png,bars/mask003.png,,,,,,,,,,,,1,1,,,,,,,2,2,2,3,,,,,,,,,,,2400.527,2401.026,2401.276,2402.877,space,1.581,,2402.877,17,82,2403.859,2403.859,2403.86,,,,0,49,49,49,1,105,40,,,,,,,,
,,60d336457da539b0a93cb7d3,65af53a4be6af047326a987b,2024-01-23_07h51.07.800,bars,2023.2.3,Win32,166.6666667,657b66ea316d21385b68909f,,,,,,,,,,,,,,,,,,,,,,,,,,,,,,,,,,,,,,,,,,,,,,,,,,,,,,,,,,,,,,,,,,,,,,,,,,,,,,,,,,,,,,,,,,,,,2403.86,2463.857,0,3,3,1,1,sequence_tables/blk043.csv
,,60d336457da539b0a93cb7d3,65af53a4be6af047326a987b,2024-01-23_07h51.07.800,bars,2023.2.3,Win32,166.6666667,657b66ea316d21385b68909f,,,,,,,,,,,2491.395,2492.407,,,2492.907,2493.14,,72,72,,,,,,,,,,,,,,,,bars/042.png,bars/mask000.png,,,,,,,,,,,,2,2,,,,,,,5,5,5,2,,,,,,2463.861,2491.39,space,27.516,,2492.407,2492.907,2493.14,2494.723,space,1.567,,2494.723,73,3,2495.723,2495.723,2495.727,,,,0,0,0,0,1,145,75,,,,,,,,
,,60d336457da539b0a93cb7d3,65af53a4be6af047326a987b,2024-01-23_07h51.07.800,bars,2023.2.3,Win32,166.6666667,657b66ea316d21385b68909f,,,,,,,,,,,2495.728,2496.706,,,2497.206,2497.456,,141,141,,,,,,,,,,,,,,,,bars/034.png,bars/mask005.png,,,,,,,,,,,,4,1,,,,,,,7,3,8,4,,,,,,,,,,,2496.706,2497.206,2497.456,2500.039,space,2.567,,2500.039,16,76,2501.027,2501.027,2501.031,,,,0,1,1,1,1,125,65,,,,,,,,
,,60d336457da539b0a93cb7d3,65af53a4be6af047326a987b,2024-01-23_07h51.07.800,bars,2023.2.3,Win32,166.6666667,657b66ea316d21385b68909f,,,,,,,,,,,2501.031,2502.039,,,2502.539,2502.806,,120,120,,,,,,,,,,,,,,,,bars/031.png,bars/mask006.png,,,,,,,,,,,,4,1,,,,,,,5,5,4,6,,,,,,,,,,,2502.039,2502.539,2502.806,2505.439,space,2.616,,2505.439,0,85,2506.439,2506.439,2506.443,,,,0,2,2,2,1,120,35,,,,,,,,
,,60d336457da539b0a93cb7d3,65af53a4be6af047326a987b,2024-01-23_07h51.07.800,bars,2023.2.3,Win32,166.6666667,657b66ea316d21385b68909f,,,,,,,,,,,2506.443,2507.44,,,2507.94,2508.19,,54,54,,,,,,,,,,,,,,,,bars/028.png,bars/mask001.png,,,,,,,,,,,,5,1,,,,,,,7,7,7,7,,,,,,,,,,,2507.44,2507.94,2508.19,2511.04,space,2.833,,2511.04,9,66,2512.039,2512.039,2512.043,,,,0,3,3,3,1,45,120,,,,,,,,
,,60d336457da539b0a93cb7d3,65af53a4be6af047326a987b,2024-01-23_07h51.07.800,bars,2023.2.3,Win32,166.6666667,657b66ea316d21385b68909f,,,,,,,,,,,2512.043,2513.039,,,2513.555,2513.806,,164,164,,,,,,,,,,,,,,,,bars/007.png,bars/mask004.png,,,,,,,,,,,,4,1,,,,,,,5,5,6,4,,,,,,,,,,,2513.039,2513.555,2513.806,2515.939,space,2.117,,2515.939,11,71,2516.939,2516.939,2516.943,,,,0,4,4,4,1,175,55,,,,,,,,
,,60d336457da539b0a93cb7d3,65af53a4be6af047326a987b,2024-01-23_07h51.07.800,bars,2023.2.3,Win32,166.6666667,657b66ea316d21385b68909f,,,,,,,,,,,2516.943,2517.939,,,2518.439,2518.689,,75,75,,,,,,,,,,,,,,,,bars/012.png,bars/mask009.png,,,,,,,,,,,,4,1,,,,,,,7,7,8,8,,,,,,,,,,,2517.939,2518.439,2518.689,2521.389,space,2.684,,2521.389,15,60,2522.389,2522.389,2522.393,,,,0,5,5,5,1,90,15,,,,,,,,
,,60d336457da539b0a93cb7d3,65af53a4be6af047326a987b,2024-01-23_07h51.07.800,bars,2023.2.3,Win32,166.6666667,657b66ea316d21385b68909f,,,,,,,,,,,2522.393,2523.389,,,2523.875,2524.123,,59,59,,,,,,,,,,,,,,,,bars/026.png,bars/mask002.png,,,,,,,,,,,,1,1,,,,,,,9,9,7,9,,,,,,,,,,,2523.389,2523.875,2524.123,2526.339,space,2.2,,2526.339,24,26,2527.338,2527.338,2527.342,,,,0,6,6,6,1,35,85,,,,,,,,
,,60d336457da539b0a93cb7d3,65af53a4be6af047326a987b,2024-01-23_07h51.07.800,bars,2023.2.3,Win32,166.6666667,657b66ea316d21385b68909f,,,,,,,,,,,2527.342,2528.338,,,2528.839,2529.105,,129,-51,,,,,,,,,,,,,,,,bars/038.png,bars/mask004.png,,,,,,,,,,,,0,1,,,,,,,10,10,10,8,,,,,,,,,,,2528.338,2528.839,2529.106,2533.705,space,4.583,,2533.705,36,59,2534.705,2534.705,2534.709,,,,0,7,7,7,1,165,70,,,,,,,,
,,60d336457da539b0a93cb7d3,65af53a4be6af047326a987b,2024-01-23_07h51.07.800,bars,2023.2.3,Win32,166.6666667,657b66ea316d21385b68909f,,,,,,,,,,,2534.709,2535.705,,,2536.205,2536.455,,128,128,,,,,,,,,,,,,,,,bars/032.png,bars/mask007.png,,,,,,,,,,,,9,1,,,,,,,10,10,10,10,,,,,,,,,,,2535.705,2536.205,2536.455,2539.621,space,3.15,,2539.621,3,72,2540.621,2540.621,2540.625,,,,0,8,8,8,1,125,20,,,,,,,,
,,60d336457da539b0a93cb7d3,65af53a4be6af047326a987b,2024-01-23_07h51.07.800,bars,2023.2.3,Win32,166.6666667,657b66ea316d21385b68909f,,,,,,,,,,,2540.625,2541.621,,,2542.122,2542.372,,6,6,,,,,,,,,,,,,,,,bars/035.png,bars/mask005.png,,,,,,,,,,,,6,1,,,,,,,8,10,9,10,,,,,,,,,,,2541.621,2542.122,2542.372,2545.088,space,2.7,,2545.088,11,54,2546.088,2546.088,2546.091,,,,0,9,9,9,1,175,60,,,,,,,,
,,60d336457da539b0a93cb7d3,65af53a4be6af047326a987b,2024-01-23_07h51.07.800,bars,2023.2.3,Win32,166.6666667,657b66ea316d21385b68909f,,,,,,,,,,,2546.092,2547.089,,,2547.588,2547.838,,47,47,,,,,,,,,,,,,,,,bars/026.png,bars/mask002.png,,,,,,,,,,,,4,1,,,,,,,6,8,7,7,,,,,,,,,,,2547.089,2547.588,2547.838,2550.555,space,2.701,,2550.555,12,38,2551.555,2551.555,2551.559,,,,0,10,10,10,1,35,85,,,,,,,,
,,60d336457da539b0a93cb7d3,65af53a4be6af047326a987b,2024-01-23_07h51.07.800,bars,2023.2.3,Win32,166.6666667,657b66ea316d21385b68909f,,,,,,,,,,,2551.559,2552.555,,,2553.054,2553.304,,152,152,,,,,,,,,,,,,,,,bars/049.png,bars/mask005.png,,,,,,,,,,,,4,1,,,,,,,4,6,5,5,,,,,,,,,,,2552.555,2553.054,2553.304,2555.154,space,1.833,,2555.154,8,37,2556.154,2556.154,2556.155,,,,0,11,11,11,1,160,115,,,,,,,,
,,60d336457da539b0a93cb7d3,65af53a4be6af047326a987b,2024-01-23_07h51.07.800,bars,2023.2.3,Win32,166.6666667,657b66ea316d21385b68909f,,,,,,,,,,,2556.155,2557.154,,,2557.655,2557.904,,108,108,,,,,,,,,,,,,,,,bars/025.png,bars/mask004.png,,,,,,,,,,,,5,1,,,,,,,6,4,6,3,,,,,,,,,,,2557.154,2557.655,2557.904,2559.888,space,1.968,,2559.888,3,68,2560.904,2560.904,2560.907,,,,0,12,12,12,1,105,40,,,,,,,,
,,60d336457da539b0a93cb7d3,65af53a4be6af047326a987b,2024-01-23_07h51.07.800,bars,2023.2.3,Win32,166.6666667,657b66ea316d21385b68909f,,,,,,,,,,,2560.908,2561.904,,,2562.404,2562.654,,49,49,,,,,,,,,,,,,,,,bars/004.png,bars/mask003.png,,,,,,,,,,,,1,1,,,,,,,8,6,6,6,,,,,,,,,,,2561.904,2562.404,2562.654,2563.854,space,1.183,,2563.854,24,76,2564.854,2564.854,2564.857,,,,0,13,13,13,1,25,125,,,,,,,,
,,60d336457da539b0a93cb7d3,65af53a4be6af047326a987b,2024-01-23_07h51.07.800,bars,2023.2.3,Win32,166.6666667,657b66ea316d21385b68909f,,,,,,,,,,,2564.858,2565.854,,,2566.354,2566.604,,140,140,,,,,,,,,,,,,,,,bars/042.png,bars/mask003.png,,,,,,,,,,,,4,1,,,,,,,6,4,5,4,,,,,,,,,,,2565.854,2566.354,2566.604,2569.054,space,2.434,,2569.054,5,65,2570.042,2570.042,2570.046,,,,0,14,14,14,1,145,75,,,,,,,,
,,60d336457da539b0a93cb7d3,65af53a4be6af047326a987b,2024-01-23_07h51.07.800,bars,2023.2.3,Win32,166.6666667,657b66ea316d21385b68909f,,,,,,,,,,,2570.046,2571.053,,,2571.554,2571.804,,161,-19,,,,,,,,,,,,,,,,bars/039.png,bars/mask005.png,,,,,,,,,,,,2,1,,,,,,,4,2,3,2,,,,,,,,,,,2571.053,2571.554,2571.804,2574.253,space,2.433,,2574.253,14,56,2575.237,2575.237,2575.24,,,,0,15,15,15,1,175,105,,,,,,,,
,,60d336457da539b0a93cb7d3,65af53a4be6af047326a987b,2024-01-23_07h51.07.800,bars,2023.2.3,Win32,166.6666667,657b66ea316d21385b68909f,,,,,,,,,,,2575.241,2576.237,,,2576.737,2576.987,,127,-53,,,,,,,,,,,,,,,,bars/031.png,bars/mask008.png,,,,,,,,,,,,2,1,,,,,,,2,4,3,5,,,,,,,,,,,2576.237,2576.737,2576.987,2581.02,space,4.017,,2581.02,7,88,2582.02,2582.02,2582.024,,,,0,16,16,16,1,120,35,,,,,,,,
,,60d336457da539b0a93cb7d3,65af53a4be6af047326a987b,2024-01-23_07h51.07.800,bars,2023.2.3,Win32,166.6666667,657b66ea316d21385b68909f,,,,,,,,,,,2582.024,2583.02,,,2583.52,2583.77,,61,61,,,,,,,,,,,,,,,,bars/019.png,bars/mask009.png,,,,,,,,,,,,0,1,,,,,,,0,2,0,4,,,,,,,,,,,2583.02,2583.52,2583.77,2585.753,space,1.967,,2585.753,16,44,2586.753,2586.753,2586.753,,,,0,17,17,17,1,45,105,,,,,,,,
,,60d336457da539b0a93cb7d3,65af53a4be6af047326a987b,2024-01-23_07h51.07.800,bars,2023.2.3,Win32,166.6666667,657b66ea316d21385b68909f,,,,,,,,,,,2586.754,2587.753,,,2588.253,2588.503,,70,70,,,,,,,,,,,,,,,,bars/042.png,bars/mask003.png,,,,,,,,,,,,1,2,,,,,,,0,0,2,1,,,,,,,,,,,2587.753,2588.253,2588.503,2592.353,space,3.833,,2592.353,75,5,2593.339,2593.339,2593.343,,,,0,18,18,18,1,145,75,,,,,,,,
