init_variables.started,init_variables.stopped,participant,session,date,expName,psychopyVersion,OS,frameRate,study_id,instruction_exp.started,instruction_exp.stopped,key_resp_8.keys,key_resp_8.rt,key_resp_8.duration,instruction_single.started,instruction_single.stopped,key_resp_2.keys,key_resp_2.rt,key_resp_2.duration,interval.started,interval.stopped,cue_single.started,cue_single.stopped,mask.started,mask.stopped,ori_response_single.started,res_ori,res,ori_response_single.stopped,key_resp_single.keys,key_resp_single.rt,key_resp_single.duration,disp_single.started,disp_single.stopped,key_resp.keys,key_resp.rt,key_resp.duration,single.thisRepN,single.thisTrialN,single.thisN,single.thisIndex,single.ran,ori,path,mask_path,instruction_bandit.started,instruction_bandit.stopped,key_resp_6.keys,key_resp_6.rt,key_resp_6.duration,cue_bandit.started,cue_bandit.stopped,bandit_res.keys,bandit_res.rt,bandit_res.duration,outcome_bandit.started,rew,action,outcome_bandit.stopped,bandit.thisRepN,bandit.thisTrialN,bandit.thisN,bandit.thisIndex,bandit.ran,actual_rew1,actual_rew2,rew1,rew2,instruction_task.started,instruction_task.stopped,key_resp_7.keys,key_resp_7.rt,key_resp_7.duration,wait_ready.started,wait_ready.stopped,key_resp_3.keys,key_resp_3.rt,key_resp_3.duration,cue.started,cue.stopped,ori_response.started,ori_response.stopped,key_resp_5.keys,key_resp_5.rt,key_resp_5.duration,outcome.started,diff1,diff2,outcome.stopped,disp_outcome_practice.started,disp_outcome_practice.stopped,key_resp_4.keys,key_resp_4.rt,key_resp_4.duration,trials.thisRepN,trials.thisTrialN,trials.thisN,trials.thisIndex,trials.ran,ori1,ori2,break_blk.started,break_blk.stopped,block.thisRepN,block.thisTrialN,block.thisN,block.thisIndex,block.ran,condition_file
0.0015,0.0017,6531095c8da8ca2ccf8f8a9f,65af547fac09f8926668b53a,2024-01-23_07h56.38.546,bars,2023.2.3,Win32,29.94011976,657b66ea316d21385b68909f,,,,,,,,,,,,,,,,,,,,,,,,,,,,,,,,,,,,,,,,,,,,,,,,,,,,,,,,,,,,,,,,,,,,,,,,,,,,,,,,,,,,,,,,,,,,,,,,,,,,
,,6531095c8da8ca2ccf8f8a9f,65af547fac09f8926668b53a,2024-01-23_07h56.38.546,bars,2023.2.3,Win32,29.94011976,657b66ea316d21385b68909f,0.002,18.0431,y,17.8988,,,,,,,,,,,,,,,,,,,,,,,,,,,,,,,,,,,,,,,,,,,,,,,,,,,,,,,,,,,,,,,,,,,,,,,,,,,,,,,,,,,,,,,,,,,,,,,,
,,6531095c8da8ca2ccf8f8a9f,65af547fac09f8926668b53a,2024-01-23_07h56.38.546,bars,2023.2.3,Win32,29.94011976,657b66ea316d21385b68909f,,,,,,18.0438,47.0939,space,29.0152,0.0017,,,,,,,,,,,,,,,,,,,,,,,,,,,,,,,,,,,,,,,,,,,,,,,,,,,,,,,,,,,,,,,,,,,,,,,,,,,,,,,,,,,,,,,,,,
,,6531095c8da8ca2ccf8f8a9f,65af547fac09f8926668b53a,2024-01-23_07h56.38.546,bars,2023.2.3,Win32,29.94011976,657b66ea316d21385b68909f,,,,,,,,,,,47.1172,48.1001,48.101,48.6001,48.601,48.8335,48.8345,1,361,77.4291,space,28.4661,,77.4295,94.3923,space,16.8757,,0,0,0,4,1,95,bars/single004.png,bars/mask004.png,,,,,,,,,,,,,,,,,,,,,,,,,,,,,,,,,,,,,,,,,,,,,,,,,,,,,,,,,,,,,,,,
,,6531095c8da8ca2ccf8f8a9f,65af547fac09f8926668b53a,2024-01-23_07h56.38.546,bars,2023.2.3,Win32,29.94011976,657b66ea316d21385b68909f,,,,,,,,,,,94.4059,95.3883,95.3901,95.8887,95.8887,96.122,96.1221,69,249,115.4857,space,19.3526,,115.4858,151.0089,space,35.4737,,0,1,1,9,1,20,bars/single009.png,bars/mask006.png,,,,,,,,,,,,,,,,,,,,,,,,,,,,,,,,,,,,,,,,,,,,,,,,,,,,,,,,,,,,,,,,
,,6531095c8da8ca2ccf8f8a9f,65af547fac09f8926668b53a,2024-01-23_07h56.38.546,bars,2023.2.3,Win32,29.94011976,657b66ea316d21385b68909f,,,,,,,,,,,151.0229,152.0077,152.0078,152.5088,152.5091,152.7426,152.7428,90,270,190.4839,space,37.7266,,190.484,196.2943,space,5.777,0.0022,0,2,2,1,1,20,bars/single001.png,bars/mask006.png,,,,,,,,,,,,,,,,,,,,,,,,,,,,,,,,,,,,,,,,,,,,,,,,,,,,,,,,,,,,,,,,
,,6531095c8da8ca2ccf8f8a9f,65af547fac09f8926668b53a,2024-01-23_07h56.38.546,bars,2023.2.3,Win32,29.94011976,657b66ea316d21385b68909f,,,,,,,,,,,196.3147,197.314,197.3141,197.814,197.8141,198.1851,198.1852,179,179,207.1339,space,8.9157,,207.134,213.7961,space,6.5926,,0,3,3,3,1,20,bars/single003.png,bars/mask005.png,,,,,,,,,,,,,,,,,,,,,,,,,,,,,,,,,,,,,,,,,,,,,,,,,,,,,,,,,,,,,,,,
,,6531095c8da8ca2ccf8f8a9f,65af547fac09f8926668b53a,2024-01-23_07h56.38.546,bars,2023.2.3,Win32,29.94011976,657b66ea316d21385b68909f,,,,,,,,,,,213.8172,214.7946,214.7947,215.7959,215.7962,215.7977,215.7978,25,25,219.7598,space,3.9322,,219.7599,1039.6309,space,819.8542,,0,4,4,6,1,175,bars/single006.png,bars/mask005.png,,,,,,,,,,,,,,,,,,,,,,,,,,,,,,,,,,,,,,,,,,,,,,,,,,,,,,,,,,,,,,,,
,,6531095c8da8ca2ccf8f8a9f,65af547fac09f8926668b53a,2024-01-23_07h56.38.546,bars,2023.2.3,Win32,29.94011976,657b66ea316d21385b68909f,,,,,,,,,,,1039.7308,1040.6368,1040.637,1041.1367,1041.1368,1041.3368,1041.3368,157,157,1048.136,space,6.7433,,1048.1361,1051.8353,space,3.6676,,0,5,5,5,1,55,bars/single005.png,bars/mask008.png,,,,,,,,,,,,,,,,,,,,,,,,,,,,,,,,,,,,,,,,,,,,,,,,,,,,,,,,,,,,,,,,
,,6531095c8da8ca2ccf8f8a9f,65af547fac09f8926668b53a,2024-01-23_07h56.38.546,bars,2023.2.3,Win32,29.94011976,657b66ea316d21385b68909f,,,,,,,,,,,1051.8486,1052.8508,1052.8509,1053.3427,1053.3427,1053.5925,1053.5925,143,143,1061.5422,space,7.9329,,1061.5423,1075.4796,space,13.9055,,0,6,6,0,1,150,bars/single000.png,bars/mask006.png,,,,,,,,,,,,,,,,,,,,,,,,,,,,,,,,,,,,,,,,,,,,,,,,,,,,,,,,,,,,,,,,
,,6531095c8da8ca2ccf8f8a9f,65af547fac09f8926668b53a,2024-01-23_07h56.38.546,bars,2023.2.3,Win32,29.94011976,657b66ea316d21385b68909f,,,,,,,,,,,1075.4948,1076.4956,1076.4957,1076.9955,1076.9955,1077.2453,1077.2454,40,40,1082.0445,space,4.7829,,1082.0448,1086.7435,space,4.6705,,0,7,7,7,1,45,bars/single007.png,bars/mask009.png,,,,,,,,,,,,,,,,,,,,,,,,,,,,,,,,,,,,,,,,,,,,,,,,,,,,,,,,,,,,,,,,
,,6531095c8da8ca2ccf8f8a9f,65af547fac09f8926668b53a,2024-01-23_07h56.38.546,bars,2023.2.3,Win32,29.94011976,657b66ea316d21385b68909f,,,,,,,,,,,1086.7571,1087.7599,1087.7599,1088.2594,1088.2594,1088.5012,1088.5012,140,140,1092.6421,space,4.1215,,1092.6421,1094.9182,space,2.2446,,0,8,8,2,1,145,bars/single002.png,bars/mask003.png,,,,,,,,,,,,,,,,,,,,,,,,,,,,,,,,,,,,,,,,,,,,,,,,,,,,,,,,,,,,,,,,
,,6531095c8da8ca2ccf8f8a9f,65af547fac09f8926668b53a,2024-01-23_07h56.38.546,bars,2023.2.3,Win32,29.94011976,657b66ea316d21385b68909f,,,,,,,,,,,1094.9186,1095.916,1095.916,1096.4076,1096.4076,1096.6578,1096.6578,167,167,1099.9073,space,3.2328,,1099.9075,1102.6398,space,2.7012,,0,9,9,8,1,160,bars/single008.png,bars/mask004.png,,,,,,,,,,,,,,,,,,,,,,,,,,,,,,,,,,,,,,,,,,,,,,,,,,,,,,,,,,,,,,,,
,,6531095c8da8ca2ccf8f8a9f,65af547fac09f8926668b53a,2024-01-23_07h56.38.546,bars,2023.2.3,Win32,29.94011976,657b66ea316d21385b68909f,,,,,,,,,,,,,,,,,,,,,,,,,,,,,,,,,,,,,1102.641,1203.0443,space,100.1306,0.0009,,,,,,,,,,,,,,,,,,,,,,,,,,,,,,,,,,,,,,,,,,,,,,,,,,,,,,,,,,,
,,6531095c8da8ca2ccf8f8a9f,65af547fac09f8926668b53a,2024-01-23_07h56.38.546,bars,2023.2.3,Win32,29.94011976,657b66ea316d21385b68909f,,,,,,,,,,,,,,,,,,,,,,,,,,,,,,,,,,,,,,,,,,1203.1531,1208.3998,right,5.2193,,1208.4,2,2,1209.3897,0,0,0,0,1,9,1,9,2,,,,,,,,,,,,,,,,,,,,,,,,,,,,,,,,,,,,,,,,,
,,6531095c8da8ca2ccf8f8a9f,65af547fac09f8926668b53a,2024-01-23_07h56.38.546,bars,2023.2.3,Win32,29.94011976,657b66ea316d21385b68909f,,,,,,,,,,,,,,,,,,,,,,,,,,,,,,,,,,,,,,,,,,1209.3905,1211.2739,right,1.8676,,1211.2739,1,2,1212.2721,0,1,1,1,1,10,0,10,1,,,,,,,,,,,,,,,,,,,,,,,,,,,,,,,,,,,,,,,,,
,,6531095c8da8ca2ccf8f8a9f,65af547fac09f8926668b53a,2024-01-23_07h56.38.546,bars,2023.2.3,Win32,29.94011976,657b66ea316d21385b68909f,,,,,,,,,,,,,,,,,,,,,,,,,,,,,,,,,,,,,,,,,,1212.273,1213.3071,left,1.018,,1213.3071,10,1,1214.3056,0,2,2,2,1,10,2,10,2,,,,,,,,,,,,,,,,,,,,,,,,,,,,,,,,,,,,,,,,,
,,6531095c8da8ca2ccf8f8a9f,65af547fac09f8926668b53a,2024-01-23_07h56.38.546,bars,2023.2.3,Win32,29.94011976,657b66ea316d21385b68909f,,,,,,,,,,,,,,,,,,,,,,,,,,,,,,,,,,,,,,,,,,1214.3064,1216.1562,right,1.8343,,1216.1562,3,2,1217.1547,0,3,3,3,1,8,4,7,3,,,,,,,,,,,,,,,,,,,,,,,,,,,,,,,,,,,,,,,,,
,,6531095c8da8ca2ccf8f8a9f,65af547fac09f8926668b53a,2024-01-23_07h56.38.546,bars,2023.2.3,Win32,29.94011976,657b66ea316d21385b68909f,,,,,,,,,,,,,,,,,,,,,,,,,,,,,,,,,,,,,,,,,,1217.1556,1218.4066,right,1.2348,,1218.4067,1,2,1219.404,0,4,4,4,1,6,2,5,1,,,,,,,,,,,,,,,,,,,,,,,,,,,,,,,,,,,,,,,,,
,,6531095c8da8ca2ccf8f8a9f,65af547fac09f8926668b53a,2024-01-23_07h56.38.546,bars,2023.2.3,Win32,29.94011976,657b66ea316d21385b68909f,,,,,,,,,,,,,,,,,,,,,,,,,,,,,,,,,,,,,,,,,,1219.4185,1220.173,left,0.7466,,1220.173,4,1,1221.1625,0,5,5,5,1,4,4,4,4,,,,,,,,,,,,,,,,,,,,,,,,,,,,,,,,,,,,,,,,,
,,6531095c8da8ca2ccf8f8a9f,65af547fac09f8926668b53a,2024-01-23_07h56.38.546,bars,2023.2.3,Win32,29.94011976,657b66ea316d21385b68909f,,,,,,,,,,,,,,,,,,,,,,,,,,,,,,,,,,,,,,,,,,1221.163,1221.763,left,0.5844,,1221.763,1,1,1222.7622,0,6,6,6,1,2,2,1,2,,,,,,,,,,,,,,,,,,,,,,,,,,,,,,,,,,,,,,,,,
,,6531095c8da8ca2ccf8f8a9f,65af547fac09f8926668b53a,2024-01-23_07h56.38.546,bars,2023.2.3,Win32,29.94011976,657b66ea316d21385b68909f,,,,,,,,,,,,,,,,,,,,,,,,,,,,,,,,,,,,,,,,,,1222.7627,1223.7125,left,0.9343,,1223.7126,0,1,1224.712,0,7,7,7,1,0,0,0,1,,,,,,,,,,,,,,,,,,,,,,,,,,,,,,,,,,,,,,,,,
,,6531095c8da8ca2ccf8f8a9f,65af547fac09f8926668b53a,2024-01-23_07h56.38.546,bars,2023.2.3,Win32,29.94011976,657b66ea316d21385b68909f,,,,,,,,,,,,,,,,,,,,,,,,,,,,,,,,,,,,,,,,,,1224.7124,1225.4372,right,0.7173,,1225.4373,0,2,1226.4361,0,8,8,8,1,0,2,1,0,,,,,,,,,,,,,,,,,,,,,,,,,,,,,,,,,,,,,,,,,
,,6531095c8da8ca2ccf8f8a9f,65af547fac09f8926668b53a,2024-01-23_07h56.38.546,bars,2023.2.3,Win32,29.94011976,657b66ea316d21385b68909f,,,,,,,,,,,,,,,,,,,,,,,,,,,,,,,,,,,,,,,,,,1226.437,1227.0548,right,0.6028,,1227.0549,3,2,1228.0518,0,9,9,9,1,2,4,2,3,,,,,,,,,,,,,,,,,,,,,,,,,,,,,,,,,,,,,,,,,
,,6531095c8da8ca2ccf8f8a9f,65af547fac09f8926668b53a,2024-01-23_07h56.38.546,bars,2023.2.3,Win32,29.94011976,657b66ea316d21385b68909f,,,,,,,,,,,,,,,,,,,,,,,,,,,,,,,,,,,,,,,,,,1228.0528,1228.5871,left,0.5182,,1228.5871,0,1,1230.0363,0,10,10,10,1,0,2,0,3,,,,,,,,,,,,,,,,,,,,,,,,,,,,,,,,,,,,,,,,,
,,6531095c8da8ca2ccf8f8a9f,65af547fac09f8926668b53a,2024-01-23_07h56.38.546,bars,2023.2.3,Win32,29.94011976,657b66ea316d21385b68909f,,,,,,,,,,,,,,,,,,,,,,,,,,,,,,,,,,,,,,,,,,1230.0367,1231.2619,left,1.2108,,1231.262,0,1,1232.2501,0,11,11,11,1,0,4,0,3,,,,,,,,,,,,,,,,,,,,,,,,,,,,,,,,,,,,,,,,,
,,6531095c8da8ca2ccf8f8a9f,65af547fac09f8926668b53a,2024-01-23_07h56.38.546,bars,2023.2.3,Win32,29.94011976,657b66ea316d21385b68909f,,,,,,,,,,,,,,,,,,,,,,,,,,,,,,,,,,,,,,,,,,1232.251,1233.0023,right,0.736,,1233.0023,6,2,1234.0003,0,12,12,12,1,2,6,1,6,,,,,,,,,,,,,,,,,,,,,,,,,,,,,,,,,,,,,,,,,
,,6531095c8da8ca2ccf8f8a9f,65af547fac09f8926668b53a,2024-01-23_07h56.38.546,bars,2023.2.3,Win32,29.94011976,657b66ea316d21385b68909f,,,,,,,,,,,,,,,,,,,,,,,,,,,,,,,,,,,,,,,,,,1234.0014,1234.9528,right,0.9355,,1234.9529,3,2,1235.9507,0,13,13,13,1,0,4,1,3,,,,,,,,,,,,,,,,,,,,,,,,,,,,,,,,,,,,,,,,,
,,6531095c8da8ca2ccf8f8a9f,65af547fac09f8926668b53a,2024-01-23_07h56.38.546,bars,2023.2.3,Win32,29.94011976,657b66ea316d21385b68909f,,,,,,,,,,,,,,,,,,,,,,,,,,,,,,,,,,,,,,,,,,1235.9519,1236.8674,left,0.9009,,1236.8676,2,1,1237.8663,0,14,14,14,1,2,6,2,7,,,,,,,,,,,,,,,,,,,,,,,,,,,,,,,,,,,,,,,,,
,,6531095c8da8ca2ccf8f8a9f,65af547fac09f8926668b53a,2024-01-23_07h56.38.546,bars,2023.2.3,Win32,29.94011976,657b66ea316d21385b68909f,,,,,,,,,,,,,,,,,,,,,,,,,,,,,,,,,,,,,,,,,,1237.8674,1238.535,right,0.6518,,1238.535,9,2,1239.5327,0,15,15,15,1,4,8,3,9,,,,,,,,,,,,,,,,,,,,,,,,,,,,,,,,,,,,,,,,,
,,6531095c8da8ca2ccf8f8a9f,65af547fac09f8926668b53a,2024-01-23_07h56.38.546,bars,2023.2.3,Win32,29.94011976,657b66ea316d21385b68909f,,,,,,,,,,,,,,,,,,,,,,,,,,,,,,,,,,,,,,,,,,1239.5332,1240.1672,right,0.6178,,1240.1672,7,2,1241.1573,0,16,16,16,1,6,6,7,7,,,,,,,,,,,,,,,,,,,,,,,,,,,,,,,,,,,,,,,,,
,,6531095c8da8ca2ccf8f8a9f,65af547fac09f8926668b53a,2024-01-23_07h56.38.546,bars,2023.2.3,Win32,29.94011976,657b66ea316d21385b68909f,,,,,,,,,,,,,,,,,,,,,,,,,,,,,,,,,,,,,,,,,,1241.1582,1241.8417,right,0.6716,,1241.8418,5,2,1242.8401,0,17,17,17,1,8,4,9,5,,,,,,,,,,,,,,,,,,,,,,,,,,,,,,,,,,,,,,,,,
,,6531095c8da8ca2ccf8f8a9f,65af547fac09f8926668b53a,2024-01-23_07h56.38.546,bars,2023.2.3,Win32,29.94011976,657b66ea316d21385b68909f,,,,,,,,,,,,,,,,,,,,,,,,,,,,,,,,,,,,,,,,,,1242.8409,1243.4671,left,0.6184,,1243.4671,5,1,1244.4656,0,18,18,18,1,6,2,5,1,,,,,,,,,,,,,,,,,,,,,,,,,,,,,,,,,,,,,,,,,
,,6531095c8da8ca2ccf8f8a9f,65af547fac09f8926668b53a,2024-01-23_07h56.38.546,bars,2023.2.3,Win32,29.94011976,657b66ea316d21385b68909f,,,,,,,,,,,,,,,,,,,,,,,,,,,,,,,,,,,,,,,,,,1244.4664,1245.0828,right,0.6015,,1245.0829,0,2,1246.0812,0,19,19,19,1,8,0,7,0,,,,,,,,,,,,,,,,,,,,,,,,,,,,,,,,,,,,,,,,,
,,6531095c8da8ca2ccf8f8a9f,65af547fac09f8926668b53a,2024-01-23_07h56.38.546,bars,2023.2.3,Win32,29.94011976,657b66ea316d21385b68909f,,,,,,,,,,,,,,,,,,,,,,,,,,,,,,,,,,,,,,,,,,,,,,,,,,,,,,,,,,,,1246.0823,1294.3469,space,48.2403,,,,,,,,,,,,,,,,,,,,,,,,,,,,,,,,,,,,,
,,6531095c8da8ca2ccf8f8a9f,65af547fac09f8926668b53a,2024-01-23_07h56.38.546,bars,2023.2.3,Win32,29.94011976,657b66ea316d21385b68909f,,,,,,,,,,,1295.897,1296.8862,,,1297.3866,1297.6363,,149,149,,,,,,,,,,,,,,,,bars/002.png,bars/mask004.png,,,,,,,,,,,,2,1,,,,,,,3,2,6,4,,,,,,1294.3645,1295.8884,space,1.5121,,1296.8864,1297.3865,1297.6368,1305.0697,space,7.4166,,1305.0699,19,64,1306.0599,1306.0603,1339.2043,space,33.1154,,0,0,0,0,1,130,85,,,,,,,,
,,6531095c8da8ca2ccf8f8a9f,65af547fac09f8926668b53a,2024-01-23_07h56.38.546,bars,2023.2.3,Win32,29.94011976,657b66ea316d21385b68909f,,,,,,,,,,,1339.2188,1340.2179,,,1340.7096,1340.9601,,61,61,,,,,,,,,,,,,,,,bars/042.png,bars/mask004.png,,,,,,,,,,,,2,2,,,,,,,1,4,1,4,,,,,,,,,,,1340.2181,1340.7095,1340.9601,1349.4164,space,8.4353,,1349.4166,84,14,1350.4157,1350.4157,1365.1796,space,14.7186,,0,1,1,1,1,145,75,,,,,,,,
,,6531095c8da8ca2ccf8f8a9f,65af547fac09f8926668b53a,2024-01-23_07h56.38.546,bars,2023.2.3,Win32,29.94011976,657b66ea316d21385b68909f,,,,,,,,,,,1365.1926,1366.1957,,,1366.696,1366.9456,,15,15,,,,,,,,,,,,,,,,bars/000.png,bars/mask005.png,,,,,,,,,,,,1,1,,,,,,,3,6,4,5,,,,,,,,,,,1366.1958,1366.6959,1366.9456,1371.0784,space,4.1184,,1371.0787,25,50,1372.0777,1372.0777,1528.6185,space,156.512,,0,2,2,2,1,40,145,,,,,,,,
,,6531095c8da8ca2ccf8f8a9f,65af547fac09f8926668b53a,2024-01-23_07h56.38.546,bars,2023.2.3,Win32,29.94011976,657b66ea316d21385b68909f,,,,,,,,,,,1528.6343,1529.6245,,,1530.1243,1530.3742,,22,202,,,,,,,,,,,,,,,,bars/041.png,bars/mask004.png,,,,,,,,,,,,5,1,,,,,,,5,4,5,4,,,,,,,,,,,1529.6246,1530.1242,1530.3742,1536.0573,space,5.6669,,1536.0574,2,63,1537.0562,1537.0562,1612.4065,space,75.3161,,0,3,3,3,1,20,85,,,,,,,,
,,6531095c8da8ca2ccf8f8a9f,65af547fac09f8926668b53a,2024-01-23_07h56.38.546,bars,2023.2.3,Win32,29.94011976,657b66ea316d21385b68909f,,,,,,,,,,,1612.4194,1613.4225,,,1613.9222,1614.1635,,24,204,,,,,,,,,,,,,,,,bars/017.png,bars/mask000.png,,,,,,,,,,,,2,2,,,,,,,3,6,3,6,,,,,,,,,,,1613.4225,1613.9222,1614.1636,1618.7975,space,4.6174,,1618.7976,59,21,1619.796,1619.7961,1635.0345,space,15.205,,0,4,4,4,1,145,45,,,,,,,,
,,6531095c8da8ca2ccf8f8a9f,65af547fac09f8926668b53a,2024-01-23_07h56.38.546,bars,2023.2.3,Win32,29.94011976,657b66ea316d21385b68909f,,,,,,,,,,,1635.0475,1636.0505,,,1636.5353,1636.7837,,153,153,,,,,,,,,,,,,,,,bars/033.png,bars/mask009.png,,,,,,,,,,,,7,2,,,,,,,5,8,4,8,,,,,,,,,,,1636.0506,1636.5352,1636.7837,1641.7831,space,4.9833,,1641.7832,52,2,1642.7823,1642.7823,1653.9977,space,11.1906,,0,5,5,5,1,25,155,,,,,,,,
,,6531095c8da8ca2ccf8f8a9f,65af547fac09f8926668b53a,2024-01-23_07h56.38.546,bars,2023.2.3,Win32,29.94011976,657b66ea316d21385b68909f,,,,,,,,,,,1654.0135,1655.0133,,,1655.513,1655.7625,,147,147,,,,,,,,,,,,,,,,bars/031.png,bars/mask004.png,,,,,,,,,,,,0,1,,,,,,,3,6,2,6,,,,,,,,,,,1655.0133,1655.513,1655.7626,1662.1297,space,6.3587,,1662.1297,27,68,1663.1279,1663.128,1669.3522,space,6.1914,,0,6,6,6,1,120,35,,,,,,,,
,,6531095c8da8ca2ccf8f8a9f,65af547fac09f8926668b53a,2024-01-23_07h56.38.546,bars,2023.2.3,Win32,29.94011976,657b66ea316d21385b68909f,,,,,,,,,,,1669.3671,1670.3662,,,1670.8587,1671.1086,,62,62,,,,,,,,,,,,,,,,bars/026.png,bars/mask000.png,,,,,,,,,,,,1,2,,,,,,,1,4,2,4,,,,,,,,,,,1670.3662,1670.8587,1671.1087,1674.5759,space,3.4572,,1674.576,27,23,1675.574,1675.5741,1687.6322,space,12.0265,,0,7,7,7,1,35,85,,,,,,,,
,,6531095c8da8ca2ccf8f8a9f,65af547fac09f8926668b53a,2024-01-23_07h56.38.546,bars,2023.2.3,Win32,29.94011976,657b66ea316d21385b68909f,,,,,,,,,,,1687.6483,1688.6379,,,1689.1392,1689.3875,,48,48,,,,,,,,,,,,,,,,bars/027.png,bars/mask005.png,,,,,,,,,,,,2,2,,,,,,,0,2,0,2,,,,,,,,,,,1688.6381,1689.1392,1689.3877,1696.3703,space,6.9658,,1696.3704,62,2,1697.3693,1697.3695,1702.3024,space,4.8997,,0,8,8,8,1,110,50,,,,,,,,
,,6531095c8da8ca2ccf8f8a9f,65af547fac09f8926668b53a,2024-01-23_07h56.38.546,bars,2023.2.3,Win32,29.94011976,657b66ea316d21385b68909f,,,,,,,,,,,1702.3153,1703.3184,,,1703.8181,1704.0679,,84,84,,,,,,,,,,,,,,,,bars/013.png,bars/mask003.png,,,,,,,,,,,,0,1,,,,,,,0,4,0,3,,,,,,,,,,,1703.3184,1703.8181,1704.068,1707.777,space,3.6988,,1707.777,9,74,1708.775,1708.775,1710.8166,space,2.008,,0,9,9,9,1,75,10,,,,,,,,
,,6531095c8da8ca2ccf8f8a9f,65af547fac09f8926668b53a,2024-01-23_07h56.38.546,bars,2023.2.3,Win32,29.94011976,657b66ea316d21385b68909f,,,,,,,,,,,1710.8173,1711.816,,,1712.307,1712.5492,,8,188,,,,,,,,,,,,,,,,bars/039.png,bars/mask007.png,,,,,,,,,,,,0,1,,,,,,,0,6,0,5,,,,,,,,,,,1711.8161,1712.3068,1712.5493,1719.3655,space,6.8,,1719.3656,13,83,1720.3635,1720.3637,1723.9138,space,3.5177,,0,10,10,10,1,175,105,,,,,,,,
,,6531095c8da8ca2ccf8f8a9f,65af547fac09f8926668b53a,2024-01-23_07h56.38.546,bars,2023.2.3,Win32,29.94011976,657b66ea316d21385b68909f,,,,,,,,,,,1723.9271,1724.9292,,,1725.4213,1725.671,,30,210,,,,,,,,,,,,,,,,bars/035.png,bars/mask005.png,,,,,,,,,,,,0,2,,,,,,,0,8,0,9,,,,,,,,,,,1724.9294,1725.4212,1725.671,1728.7377,space,3.0501,,1728.7377,35,30,1729.7364,1729.7366,1780.7606,space,50.9901,,0,11,11,11,1,175,60,,,,,,,,
,,6531095c8da8ca2ccf8f8a9f,65af547fac09f8926668b53a,2024-01-23_07h56.38.546,bars,2023.2.3,Win32,29.94011976,657b66ea316d21385b68909f,,,,,,,,,,,1780.7746,1781.7749,,,1782.2663,1782.5166,,34,34,,,,,,,,,,,,,,,,bars/010.png,bars/mask005.png,,,,,,,,,,,,3,2,,,,,,,2,10,2,9,,,,,,,,,,,1781.7749,1782.2662,1782.5166,1787.5335,space,5.007,,1787.5336,49,21,1788.5319,1788.532,1790.9151,space,2.352,,0,12,12,12,1,165,55,,,,,,,,
,,6531095c8da8ca2ccf8f8a9f,65af547fac09f8926668b53a,2024-01-23_07h56.38.546,bars,2023.2.3,Win32,29.94011976,657b66ea316d21385b68909f,,,,,,,,,,,1790.9289,1791.9307,,,1792.4218,1792.6722,,52,52,,,,,,,,,,,,,,,,bars/043.png,bars/mask005.png,,,,,,,,,,,,0,1,,,,,,,0,10,0,10,,,,,,,,,,,1791.9307,1792.4218,1792.6723,1796.8072,space,4.1185,,1796.8073,22,78,1797.8047,1797.8048,1799.3642,space,1.532,,0,13,13,13,1,30,130,,,,,,,,
,,6531095c8da8ca2ccf8f8a9f,65af547fac09f8926668b53a,2024-01-23_07h56.38.546,bars,2023.2.3,Win32,29.94011976,657b66ea316d21385b68909f,,,,,,,,,,,1799.3647,1800.3626,,,1800.8624,1801.1138,,42,222,,,,,,,,,,,,,,,,bars/010.png,bars/mask002.png,,,,,,,,,,,,6,2,,,,,,,0,10,0,10,,,,,,,,,,,1800.3627,1800.8623,1801.1139,1805.0618,space,3.9331,,1805.0621,57,13,1806.0618,1806.0618,1808.2113,space,2.1148,,0,14,14,14,1,165,55,,,,,,,,
,,6531095c8da8ca2ccf8f8a9f,65af547fac09f8926668b53a,2024-01-23_07h56.38.546,bars,2023.2.3,Win32,29.94011976,657b66ea316d21385b68909f,,,,,,,,,,,1808.212,1809.2101,,,1809.7101,1809.9598,,157,157,,,,,,,,,,,,,,,,bars/044.png,bars/mask007.png,,,,,,,,,,,,7,2,,,,,,,2,8,3,8,,,,,,,,,,,1809.2102,1809.7101,1809.96,1811.477,space,1.5015,,1811.477,82,2,1812.4758,1812.476,1815.1426,space,2.6491,,0,15,15,15,1,75,155,,,,,,,,
,,6531095c8da8ca2ccf8f8a9f,65af547fac09f8926668b53a,2024-01-23_07h56.38.546,bars,2023.2.3,Win32,29.94011976,657b66ea316d21385b68909f,,,,,,,,,,,1815.1552,1816.1583,,,1816.6441,1816.8923,,103,283,,,,,,,,,,,,,,,,bars/025.png,bars/mask000.png,,,,,,,,,,,,0,1,,,,,,,0,6,0,5,,,,,,,,,,,1816.1584,1816.644,1816.8923,1823.2677,space,6.3652,,1823.2677,2,63,1824.2655,1824.2657,1829.3487,space,5.0547,,0,16,16,16,1,105,40,,,,,,,,
,,6531095c8da8ca2ccf8f8a9f,65af547fac09f8926668b53a,2024-01-23_07h56.38.546,bars,2023.2.3,Win32,29.94011976,657b66ea316d21385b68909f,,,,,,,,,,,1829.3632,1830.3629,,,1830.8639,1831.1137,,55,-125,,,,,,,,,,,,,,,,bars/027.png,bars/mask004.png,,,,,,,,,,,,3,2,,,,,,,2,4,2,3,,,,,,,,,,,1830.3629,1830.8639,1831.1138,1838.0637,space,6.9337,,1838.0638,55,5,1839.0616,1839.0618,1844.9859,space,5.8884,,0,17,17,17,1,110,50,,,,,,,,
,,6531095c8da8ca2ccf8f8a9f,65af547fac09f8926668b53a,2024-01-23_07h56.38.546,bars,2023.2.3,Win32,29.94011976,657b66ea316d21385b68909f,,,,,,,,,,,1844.9979,1846.0018,,,1846.4935,1846.7434,,113,113,,,,,,,,,,,,,,,,bars/018.png,bars/mask009.png,,,,,,,,,,,,2,2,,,,,,,0,6,1,7,,,,,,,,,,,1846.002,1846.4933,1846.7436,1849.4437,space,2.6838,,1849.4437,37,23,1850.4342,1850.4343,1852.2357,space,1.7774,,0,18,18,18,1,150,90,,,,,,,,
,,6531095c8da8ca2ccf8f8a9f,65af547fac09f8926668b53a,2024-01-23_07h56.38.546,bars,2023.2.3,Win32,29.94011976,657b66ea316d21385b68909f,,,,,,,,,,,1852.2362,1853.2334,,,1853.7332,1853.9834,,91,91,,,,,,,,,,,,,,,,bars/011.png,bars/mask000.png,,,,,,,,,,,,6,2,,,,,,,2,8,2,8,,,,,,,,,,,1853.2336,1853.7332,1853.9835,1857.9505,space,3.957,,1857.9505,69,6,1858.9484,1858.9486,1860.5659,space,1.5891,,0,19,19,19,1,160,85,,,,,,,,
,,6531095c8da8ca2ccf8f8a9f,65af547fac09f8926668b53a,2024-01-23_07h56.38.546,bars,2023.2.3,Win32,29.94011976,657b66ea316d21385b68909f,,,,,,,,,,,1860.5665,1861.5651,,,1862.0568,1862.3062,,132,132,,,,,,,,,,,,,,,,bars/023.png,bars/mask003.png,,,,,,,,,,,,3,2,,,,,,,4,6,4,8,,,,,,,,,,,1861.5652,1862.0568,1862.3063,1867.8079,space,5.4849,,1867.8079,68,17,1868.8044,1868.8046,1869.6401,space,0.8132,,0,20,20,20,1,20,115,,,,,,,,
,,6531095c8da8ca2ccf8f8a9f,65af547fac09f8926668b53a,2024-01-23_07h56.38.546,bars,2023.2.3,Win32,29.94011976,657b66ea316d21385b68909f,,,,,,,,,,,1869.6404,1870.638,,,1871.1383,1871.3876,,46,-134,,,,,,,,,,,,,,,,bars/045.png,bars/mask007.png,,,,,,,,,,,,0,2,,,,,,,6,4,6,4,,,,,,,,,,,1870.638,1871.1378,1871.3876,1877.6039,space,6.1993,,1877.604,54,36,1878.6024,1878.6025,1883.4275,space,4.7961,,0,21,21,21,1,100,10,,,,,,,,
,,6531095c8da8ca2ccf8f8a9f,65af547fac09f8926668b53a,2024-01-23_07h56.38.546,bars,2023.2.3,Win32,29.94011976,657b66ea316d21385b68909f,,,,,,,,,,,1883.4398,1884.4433,,,1884.9433,1885.193,,108,108,,,,,,,,,,,,,,,,bars/027.png,bars/mask003.png,,,,,,,,,,,,7,1,,,,,,,8,2,8,2,,,,,,,,,,,1884.4433,1884.9432,1885.193,1889.1282,space,3.9265,,1889.1282,2,58,1890.1255,1890.1256,1891.8765,space,1.7212,,0,22,22,22,1,110,50,,,,,,,,
,,6531095c8da8ca2ccf8f8a9f,65af547fac09f8926668b53a,2024-01-23_07h56.38.546,bars,2023.2.3,Win32,29.94011976,657b66ea316d21385b68909f,,,,,,,,,,,1891.8769,1892.8746,,,1893.3746,1893.6245,,50,50,,,,,,,,,,,,,,,,bars/044.png,bars/mask004.png,,,,,,,,,,,,1,1,,,,,,,6,4,6,6,,,,,,,,,,,1892.8747,1893.3746,1893.6245,1899.2914,space,5.6504,,1899.2915,25,75,1900.2898,1900.2899,1901.773,space,1.4561,,0,23,23,23,1,75,155,,,,,,,,
,,6531095c8da8ca2ccf8f8a9f,65af547fac09f8926668b53a,2024-01-23_07h56.38.546,bars,2023.2.3,Win32,29.94011976,657b66ea316d21385b68909f,,,,,,,,,,,1901.7736,1902.7727,,,1903.2724,1903.5225,,6,6,,,,,,,,,,,,,,,,bars/009.png,bars/mask006.png,,,,,,,,,,,,2,1,,,,,,,4,2,3,1,,,,,,,,,,,1902.7728,1903.2724,1903.5226,1907.8047,space,4.2683,,1907.8048,9,81,1908.8043,1908.8043,1910.1879,space,1.3558,,0,24,24,24,1,15,105,,,,,,,,
,,6531095c8da8ca2ccf8f8a9f,65af547fac09f8926668b53a,2024-01-23_07h56.38.546,bars,2023.2.3,Win32,29.94011976,657b66ea316d21385b68909f,,,,,,,,,,,1910.1884,1911.1872,,,1911.6874,1911.9371,,159,-21,,,,,,,,,,,,,,,,bars/033.png,bars/mask004.png,,,,,,,,,,,,2,2,,,,,,,2,4,2,2,,,,,,,,,,,1911.1872,1911.6873,1911.9372,1914.6365,space,2.6832,,1914.6366,46,4,1915.6364,1915.6364,1915.6698,space,0.0139,,0,25,25,25,1,25,155,,,,,,,,
,,6531095c8da8ca2ccf8f8a9f,65af547fac09f8926668b53a,2024-01-23_07h56.38.546,bars,2023.2.3,Win32,29.94011976,657b66ea316d21385b68909f,,,,,,,,,,,1915.6702,1916.6691,,,1917.1689,1917.4183,,61,61,,,,,,,,,,,,,,,,bars/046.png,bars/mask009.png,,,,,,,,,,,,1,2,,,,,,,4,6,4,6,,,,,,,,,,,1916.6691,1917.1689,1917.4184,1921.5519,space,4.1184,,1921.5519,86,24,1922.553,1922.553,1924.7184,space,2.1362,,0,26,26,26,1,155,85,,,,,,,,
,,6531095c8da8ca2ccf8f8a9f,65af547fac09f8926668b53a,2024-01-23_07h56.38.546,bars,2023.2.3,Win32,29.94011976,657b66ea316d21385b68909f,,,,,,,,,,,1924.7188,1925.717,,,1926.2168,1926.4667,,31,31,,,,,,,,,,,,,,,,bars/007.png,bars/mask006.png,,,,,,,,,,,,0,2,,,,,,,2,4,1,1,,,,,,,,,,,1925.717,1926.2167,1926.4668,1932.3491,space,5.8654,,1932.3492,36,24,1933.3491,1933.3492,1933.4161,space,0.0339,,0,27,27,27,1,175,55,,,,,,,,
,,6531095c8da8ca2ccf8f8a9f,65af547fac09f8926668b53a,2024-01-23_07h56.38.546,bars,2023.2.3,Win32,29.94011976,657b66ea316d21385b68909f,,,,,,,,,,,1933.4166,1934.4153,,,1934.915,1935.1653,,57,57,,,,,,,,,,,,,,,,bars/026.png,bars/mask002.png,,,,,,,,,,,,1,1,,,,,,,4,2,5,3,,,,,,,,,,,1934.4154,1934.915,1935.1654,1937.5728,space,2.3991,,1937.5729,22,28,1938.5722,1938.5723,1940.2315,space,1.6312,,0,28,28,28,1,35,85,,,,,,,,
,,6531095c8da8ca2ccf8f8a9f,65af547fac09f8926668b53a,2024-01-23_07h56.38.546,bars,2023.2.3,Win32,29.94011976,657b66ea316d21385b68909f,,,,,,,,,,,1940.2319,1941.2298,,,1941.7201,1941.9715,,135,135,,,,,,,,,,,,,,,,bars/035.png,bars/mask008.png,,,,,,,,,,,,0,1,,,,,,,2,0,3,0,,,,,,,,,,,1941.2299,1941.7199,1941.9716,1944.3555,space,2.3672,,1944.3557,40,75,1945.3536,1945.3536,1947.0212,space,1.6442,,0,29,29,29,1,175,60,,,,,,,,
,,6531095c8da8ca2ccf8f8a9f,65af547fac09f8926668b53a,2024-01-23_07h56.38.546,bars,2023.2.3,Win32,29.94011976,657b66ea316d21385b68909f,,,,,,,,,,,1947.0216,1948.0197,,,1948.5207,1948.7696,,120,120,,,,,,,,,,,,,,,,bars/001.png,bars/mask002.png,,,,,,,,,,,,1,1,,,,,,,0,0,2,0,,,,,,,,,,,1948.0198,1948.5206,1948.7697,1951.8041,space,3.0179,,1951.8042,10,35,1952.8021,1952.8022,1954.8609,space,2.0276,,0,30,30,30,1,130,85,,,,,,,,
,,6531095c8da8ca2ccf8f8a9f,65af547fac09f8926668b53a,2024-01-23_07h56.38.546,bars,2023.2.3,Win32,29.94011976,657b66ea316d21385b68909f,,,,,,,,,,,1954.8614,1955.8599,,,1956.3602,1956.6097,,140,140,,,,,,,,,,,,,,,,bars/023.png,bars/mask007.png,,,,,,,,,,,,0,2,,,,,,,2,0,1,0,,,,,,,,,,,1955.86,1956.3601,1956.6098,1959.9256,space,3.3049,,1959.9257,60,25,1960.9251,1960.9251,1962.6259,space,1.6675,,0,31,31,31,1,20,115,,,,,,,,
,,6531095c8da8ca2ccf8f8a9f,65af547fac09f8926668b53a,2024-01-23_07h56.38.546,bars,2023.2.3,Win32,29.94011976,657b66ea316d21385b68909f,,,,,,,,,,,1962.6264,1963.6248,,,1964.1246,1964.377,,2,182,,,,,,,,,,,,,,,,bars/033.png,bars/mask005.png,,,,,,,,,,,,0,1,,,,,,,0,0,0,0,,,,,,,,,,,1963.625,1964.1246,1964.377,1970.7235,space,6.3324,,1970.7235,23,27,1971.7228,1971.723,1972.4992,space,0.7487,,0,32,32,32,1,25,155,,,,,,,,
,,6531095c8da8ca2ccf8f8a9f,65af547fac09f8926668b53a,2024-01-23_07h56.38.546,bars,2023.2.3,Win32,29.94011976,657b66ea316d21385b68909f,,,,,,,,,,,1972.4996,1973.4977,,,1973.9974,1974.2479,,109,109,,,,,,,,,,,,,,,,bars/009.png,bars/mask001.png,,,,,,,,,,,,2,2,,,,,,,0,2,0,2,,,,,,,,,,,1973.4978,1973.9974,1974.248,1978.6481,space,4.3842,,1978.6481,86,4,1979.6463,1979.6464,1981.1875,space,1.5134,,0,33,33,33,1,15,105,,,,,,,,
,,6531095c8da8ca2ccf8f8a9f,65af547fac09f8926668b53a,2024-01-23_07h56.38.546,bars,2023.2.3,Win32,29.94011976,657b66ea316d21385b68909f,,,,,,,,,,,1981.1882,1982.1874,,,1982.6871,1982.937,,70,70,,,,,,,,,,,,,,,,bars/006.png,bars/mask002.png,,,,,,,,,,,,0,2,,,,,,,2,0,2,1,,,,,,,,,,,1982.1874,1982.6871,1982.9371,1986.8697,space,3.9178,,1986.8698,35,30,1987.869,1987.8691,1988.6869,space,0.7872,,0,34,34,34,1,35,100,,,,,,,,
,,6531095c8da8ca2ccf8f8a9f,65af547fac09f8926668b53a,2024-01-23_07h56.38.546,bars,2023.2.3,Win32,29.94011976,657b66ea316d21385b68909f,,,,,,,,,,,1988.6873,1989.6856,,,1990.1774,1990.4272,,132,132,,,,,,,,,,,,,,,,bars/049.png,bars/mask004.png,,,,,,,,,,,,0,2,,,,,,,0,2,0,1,,,,,,,,,,,1989.6856,1990.1773,1990.4272,1993.3123,space,2.8689,,1993.3123,28,17,1994.3005,1994.3007,1996.3936,space,2.0682,,0,35,35,35,1,160,115,,,,,,,,
,,6531095c8da8ca2ccf8f8a9f,65af547fac09f8926668b53a,2024-01-23_07h56.38.546,bars,2023.2.3,Win32,29.94011976,657b66ea316d21385b68909f,,,,,,,,,,,1996.394,1997.3914,,,1997.8919,1998.1418,,132,132,,,,,,,,,,,,,,,,bars/049.png,bars/mask001.png,,,,,,,,,,,,0,2,,,,,,,2,0,3,0,,,,,,,,,,,1997.3915,1997.8918,1998.1419,2001.9091,space,3.7506,,2001.9091,28,17,2002.9073,2002.9074,2003.892,space,0.9641,,0,36,36,36,1,160,115,,,,,,,,
,,6531095c8da8ca2ccf8f8a9f,65af547fac09f8926668b53a,2024-01-23_07h56.38.546,bars,2023.2.3,Win32,29.94011976,657b66ea316d21385b68909f,,,,,,,,,,,2003.8924,2004.8897,,,2005.3817,2005.6317,,62,62,,,,,,,,,,,,,,,,bars/030.png,bars/mask006.png,,,,,,,,,,,,1,2,,,,,,,4,2,5,1,,,,,,,,,,,2004.8898,2005.3816,2005.6317,2006.8985,space,1.2529,,2006.8985,78,3,2007.8977,2007.8979,2010.1165,space,2.2065,,0,37,37,37,1,140,65,,,,,,,,
,,6531095c8da8ca2ccf8f8a9f,65af547fac09f8926668b53a,2024-01-23_07h56.38.546,bars,2023.2.3,Win32,29.94011976,657b66ea316d21385b68909f,,,,,,,,,,,2010.1169,2011.1159,,,2011.6136,2011.8634,,39,39,,,,,,,,,,,,,,,,bars/022.png,bars/mask000.png,,,,,,,,,,,,2,2,,,,,,,2,4,2,5,,,,,,,,,,,2011.1159,2011.6134,2011.8635,2014.3301,space,2.4555,,2014.3303,56,19,2015.3293,2015.3295,2016.3296,space,0.9702,,0,38,38,38,1,95,20,,,,,,,,
,,6531095c8da8ca2ccf8f8a9f,65af547fac09f8926668b53a,2024-01-23_07h56.38.546,bars,2023.2.3,Win32,29.94011976,657b66ea316d21385b68909f,,,,,,,,,,,2016.3302,2017.3291,,,2017.8286,2018.0791,,174,174,,,,,,,,,,,,,,,,bars/023.png,bars/mask006.png,,,,,,,,,,,,0,1,,,,,,,4,6,3,6,,,,,,,,,,,2017.3293,2017.8285,2018.0791,2020.9284,space,2.832,,2020.9285,26,59,2021.9282,2021.9282,2022.1051,space,0.15,,0,39,39,39,1,20,115,,,,,,,,
,,6531095c8da8ca2ccf8f8a9f,65af547fac09f8926668b53a,2024-01-23_07h56.38.546,bars,2023.2.3,Win32,29.94011976,657b66ea316d21385b68909f,,,,,,,,,,,2022.1059,2023.1025,,,2023.5946,2023.8449,,51,51,,,,,,,,,,,,,,,,bars/047.png,bars/mask002.png,,,,,,,,,,,,1,2,,,,,,,2,4,1,3,,,,,,,,,,,2023.1026,2023.5946,2023.845,2027.8122,space,3.9569,,2027.8122,36,19,2028.8098,2028.81,2029.985,space,1.1483,,0,40,40,40,1,15,70,,,,,,,,
,,6531095c8da8ca2ccf8f8a9f,65af547fac09f8926668b53a,2024-01-23_07h56.38.546,bars,2023.2.3,Win32,29.94011976,657b66ea316d21385b68909f,,,,,,,,,,,2029.986,2030.9849,,,2031.4841,2031.7341,,122,122,,,,,,,,,,,,,,,,bars/007.png,bars/mask008.png,,,,,,,,,,,,0,1,,,,,,,4,2,3,2,,,,,,,,,,,2030.985,2031.4841,2031.7344,2032.8535,space,1.1026,,2032.8535,53,67,2033.8467,2033.8467,2034.9355,space,1.0679,,0,41,41,41,1,175,55,,,,,,,,
,,6531095c8da8ca2ccf8f8a9f,65af547fac09f8926668b53a,2024-01-23_07h56.38.546,bars,2023.2.3,Win32,29.94011976,657b66ea316d21385b68909f,,,,,,,,,,,2034.9361,2035.9338,,,2036.4245,2036.6745,,45,45,,,,,,,,,,,,,,,,bars/029.png,bars/mask009.png,,,,,,,,,,,,1,2,,,,,,,6,0,7,1,,,,,,,,,,,2035.9339,2036.4243,2036.6745,2037.7082,space,1.0188,,2037.7084,45,0,2038.7073,2038.7074,2038.8918,space,0.1633,,0,42,42,42,1,90,45,,,,,,,,
,,6531095c8da8ca2ccf8f8a9f,65af547fac09f8926668b53a,2024-01-23_07h56.38.546,bars,2023.2.3,Win32,29.94011976,657b66ea316d21385b68909f,,,,,,,,,,,2038.8922,2039.8905,,,2040.3905,2040.6405,,22,202,,,,,,,,,,,,,,,,bars/012.png,bars/mask003.png,,,,,,,,,,,,0,2,,,,,,,4,0,6,0,,,,,,,,,,,2039.8907,2040.3904,2040.6406,2044.7399,space,4.083,,2044.7401,68,7,2045.7394,2045.7395,2048.4062,space,2.6404,,0,43,43,43,1,90,15,,,,,,,,
,,6531095c8da8ca2ccf8f8a9f,65af547fac09f8926668b53a,2024-01-23_07h56.38.546,bars,2023.2.3,Win32,29.94011976,657b66ea316d21385b68909f,,,,,,,,,,,2048.419,2049.4214,,,2049.9216,2050.1716,,144,144,,,,,,,,,,,,,,,,bars/018.png,bars/mask003.png,,,,,,,,,,,,2,1,,,,,,,2,0,2,0,,,,,,,,,,,2049.4214,2049.9215,2050.1716,2053.0885,space,2.9041,,2053.0886,6,54,2054.0875,2054.0875,2056.0889,space,1.9754,,0,44,44,44,1,150,90,,,,,,,,
,,6531095c8da8ca2ccf8f8a9f,65af547fac09f8926668b53a,2024-01-23_07h56.38.546,bars,2023.2.3,Win32,29.94011976,657b66ea316d21385b68909f,,,,,,,,,,,2056.0895,2057.0865,,,2057.5866,2057.8366,,71,71,,,,,,,,,,,,,,,,bars/013.png,bars/mask001.png,,,,,,,,,,,,0,1,,,,,,,0,0,0,2,,,,,,,,,,,2057.0867,2057.5866,2057.8367,2062.1282,space,4.2813,,2062.1282,4,61,2063.1272,2063.1273,2065.2352,space,2.0779,,0,45,45,45,1,75,10,,,,,,,,
,,6531095c8da8ca2ccf8f8a9f,65af547fac09f8926668b53a,2024-01-23_07h56.38.546,bars,2023.2.3,Win32,29.94011976,657b66ea316d21385b68909f,,,,,,,,,,,2065.2358,2066.2344,,,2066.7344,2066.9841,,162,162,,,,,,,,,,,,,,,,bars/047.png,bars/mask008.png,,,,,,,,,,,,0,1,,,,,,,2,2,2,1,,,,,,,,,,,2066.2344,2066.7343,2066.9842,2069.1511,space,2.1501,,2069.1511,33,88,2070.1501,2070.1501,2070.8679,space,0.6994,,0,46,46,46,1,15,70,,,,,,,,
,,6531095c8da8ca2ccf8f8a9f,65af547fac09f8926668b53a,2024-01-23_07h56.38.546,bars,2023.2.3,Win32,29.94011976,657b66ea316d21385b68909f,,,,,,,,,,,2070.8684,2071.8664,,,2072.3665,2072.6173,,72,72,,,,,,,,,,,,,,,,bars/031.png,bars/mask005.png,,,,,,,,,,,,0,2,,,,,,,4,0,5,1,,,,,,,,,,,2071.8669,2072.3664,2072.6173,2078.766,space,6.1337,,2078.7662,48,37,2079.7648,2079.7649,2114.4822,space,34.6748,,0,47,47,47,1,120,35,,,,,,,,
,,6531095c8da8ca2ccf8f8a9f,65af547fac09f8926668b53a,2024-01-23_07h56.38.546,bars,2023.2.3,Win32,29.94011976,657b66ea316d21385b68909f,,,,,,,,,,,2114.4974,2115.4972,,,2116.0008,2116.247,,19,19,,,,,,,,,,,,,,,,bars/022.png,bars/mask006.png,,,,,,,,,,,,3,2,,,,,,,6,2,7,3,,,,,,,,,,,2115.4972,2116.0008,2116.2471,2120.4055,space,4.135,,2120.4055,76,1,2121.4057,2121.4058,2123.6054,space,2.1695,,0,48,48,48,1,95,20,,,,,,,,
,,6531095c8da8ca2ccf8f8a9f,65af547fac09f8926668b53a,2024-01-23_07h56.38.546,bars,2023.2.3,Win32,29.94011976,657b66ea316d21385b68909f,,,,,,,,,,,2123.6062,2124.6039,,,2125.1041,2125.354,,56,236,,,,,,,,,,,,,,,,bars/025.png,bars/mask003.png,,,,,,,,,,,,2,2,,,,,,,4,4,3,4,,,,,,,,,,,2124.604,2125.1041,2125.3541,2130.7129,space,5.3491,,2130.713,49,16,2131.7115,2131.7115,2135.5022,space,3.7613,,0,49,49,49,1,105,40,,,,,,,,
,,6531095c8da8ca2ccf8f8a9f,65af547fac09f8926668b53a,2024-01-23_07h56.38.546,bars,2023.2.3,Win32,29.94011976,657b66ea316d21385b68909f,,,,,,,,,,,,,,,,,,,,,,,,,,,,,,,,,,,,,,,,,,,,,,,,,,,,,,,,,,,,,,,,,,,,,,,,,,,,,,,,,,,,,,,,,,,,,2135.5152,2186.4289,0,0,0,0,1,sequence_tables/blk023.csv
,,6531095c8da8ca2ccf8f8a9f,65af547fac09f8926668b53a,2024-01-23_07h56.38.546,bars,2023.2.3,Win32,29.94011976,657b66ea316d21385b68909f,,,,,,,,,,,2247.0983,2248.0675,,,2248.5678,2248.8171,,6,6,,,,,,,,,,,,,,,,bars/012.png,bars/mask001.png,,,,,,,,,,,,5,2,,,,,,,5,8,5,7,,,,,,2186.4536,2247.0529,space,60.5814,,2248.0677,2248.5676,2248.8171,2252.3179,space,3.4842,,2252.318,84,9,2253.3162,2253.3162,2253.3302,,,,0,0,0,0,1,90,15,,,,,,,,
,,6531095c8da8ca2ccf8f8a9f,65af547fac09f8926668b53a,2024-01-23_07h56.38.546,bars,2023.2.3,Win32,29.94011976,657b66ea316d21385b68909f,,,,,,,,,,,2253.3305,2254.3332,,,2254.8246,2255.0746,,139,139,,,,,,,,,,,,,,,,bars/034.png,bars/mask001.png,,,,,,,,,,,,2,1,,,,,,,3,6,4,8,,,,,,,,,,,2254.3334,2254.8246,2255.0747,2257.7589,space,2.6671,,2257.7589,14,74,2258.757,2258.7571,2258.7734,,,,0,1,1,1,1,125,65,,,,,,,,
,,6531095c8da8ca2ccf8f8a9f,65af547fac09f8926668b53a,2024-01-23_07h56.38.546,bars,2023.2.3,Win32,29.94011976,657b66ea316d21385b68909f,,,,,,,,,,,2258.7738,2259.7731,,,2260.273,2260.5229,,20,200,,,,,,,,,,,,,,,,bars/013.png,bars/mask002.png,,,,,,,,,,,,6,2,,,,,,,5,8,5,9,,,,,,,,,,,2259.7731,2260.273,2260.523,2265.1224,space,4.5836,,2265.1225,55,10,2266.1221,2266.1222,2266.1381,,,,0,2,2,2,1,75,10,,,,,,,,
,,6531095c8da8ca2ccf8f8a9f,65af547fac09f8926668b53a,2024-01-23_07h56.38.546,bars,2023.2.3,Win32,29.94011976,657b66ea316d21385b68909f,,,,,,,,,,,2266.1385,2267.1382,,,2267.6381,2267.8883,,137,137,,,,,,,,,,,,,,,,bars/049.png,bars/mask009.png,,,,,,,,,,,,1,2,,,,,,,7,6,7,5,,,,,,,,,,,2267.1382,2267.6379,2267.8883,2270.2212,space,2.3185,,2270.2212,23,22,2271.2206,2271.2207,2271.2342,,,,0,3,3,3,1,160,115,,,,,,,,
,,6531095c8da8ca2ccf8f8a9f,65af547fac09f8926668b53a,2024-01-23_07h56.38.546,bars,2023.2.3,Win32,29.94011976,657b66ea316d21385b68909f,,,,,,,,,,,2271.2345,2272.237,,,2272.737,2272.9869,,179,179,,,,,,,,,,,,,,,,bars/046.png,bars/mask000.png,,,,,,,,,,,,2,1,,,,,,,9,4,8,2,,,,,,,,,,,2272.2371,2272.737,2272.9869,2276.0368,space,3.037,,2276.0368,24,86,2277.0359,2277.0359,2277.0511,,,,0,4,4,4,1,155,85,,,,,,,,
,,6531095c8da8ca2ccf8f8a9f,65af547fac09f8926668b53a,2024-01-23_07h56.38.546,bars,2023.2.3,Win32,29.94011976,657b66ea316d21385b68909f,,,,,,,,,,,2277.0518,2278.0524,,,2278.5445,2278.7935,,164,-16,,,,,,,,,,,,,,,,bars/016.png,bars/mask006.png,,,,,,,,,,,,4,2,,,,,,,7,6,8,4,,,,,,,,,,,2278.0525,2278.5444,2278.7935,2284.4605,space,5.6493,,2284.4605,56,1,2285.4593,2285.4593,2285.4762,,,,0,5,5,5,1,40,165,,,,,,,,
,,6531095c8da8ca2ccf8f8a9f,65af547fac09f8926668b53a,2024-01-23_07h56.38.546,bars,2023.2.3,Win32,29.94011976,657b66ea316d21385b68909f,,,,,,,,,,,2285.4767,2286.4671,,,2286.9675,2287.2167,,94,94,,,,,,,,,,,,,,,,bars/027.png,bars/mask006.png,,,,,,,,,,,,4,1,,,,,,,9,8,9,7,,,,,,,,,,,2286.4671,2286.9674,2287.2168,2289.4833,space,2.2529,,2289.4834,16,44,2290.4825,2290.4827,2290.4978,,,,0,6,6,6,1,110,50,,,,,,,,
,,6531095c8da8ca2ccf8f8a9f,65af547fac09f8926668b53a,2024-01-23_07h56.38.546,bars,2023.2.3,Win32,29.94011976,657b66ea316d21385b68909f,,,,,,,,,,,2290.4989,2291.4991,,,2291.999,2292.249,,148,148,,,,,,,,,,,,,,,,bars/015.png,bars/mask006.png,,,,,,,,,,,,6,2,,,,,,,7,10,7,10,,,,,,,,,,,2291.4993,2291.9988,2292.249,2294.8321,space,2.5683,,2294.8321,38,12,2295.8316,2295.8317,2295.8476,,,,0,7,7,7,1,110,160,,,,,,,,
,,6531095c8da8ca2ccf8f8a9f,65af547fac09f8926668b53a,2024-01-23_07h56.38.546,bars,2023.2.3,Win32,29.94011976,657b66ea316d21385b68909f,,,,,,,,,,,2295.8481,2296.8398,,,2297.3392,2297.5887,,79,79,,,,,,,,,,,,,,,,bars/046.png,bars/mask006.png,,,,,,,,,,,,7,2,,,,,,,5,10,4,9,,,,,,,,,,,2296.8398,2297.3392,2297.5889,2299.5573,space,1.9517,,2299.5573,76,6,2300.5559,2300.556,2300.5577,,,,0,8,8,8,1,155,85,,,,,,,,
,,6531095c8da8ca2ccf8f8a9f,65af547fac09f8926668b53a,2024-01-23_07h56.38.546,bars,2023.2.3,Win32,29.94011976,657b66ea316d21385b68909f,,,,,,,,,,,2300.5584,2301.5474,,,2302.0474,2302.2976,,69,69,,,,,,,,,,,,,,,,bars/022.png,bars/mask007.png,,,,,,,,,,,,1,1,,,,,,,7,8,7,8,,,,,,,,,,,2301.5474,2302.0474,2302.2977,2306.1223,space,3.8164,,2306.1224,26,49,2307.1207,2307.1207,2307.1405,,,,0,9,9,9,1,95,20,,,,,,,,
,,6531095c8da8ca2ccf8f8a9f,65af547fac09f8926668b53a,2024-01-23_07h56.38.546,bars,2023.2.3,Win32,29.94011976,657b66ea316d21385b68909f,,,,,,,,,,,2307.1409,2308.1452,,,2308.6454,2308.8959,,165,165,,,,,,,,,,,,,,,,bars/020.png,bars/mask001.png,,,,,,,,,,,,5,2,,,,,,,9,6,10,6,,,,,,,,,,,2308.1452,2308.6453,2308.896,2311.6778,space,2.7665,,2311.6778,50,5,2312.6776,2312.6778,2312.6941,,,,0,10,10,10,1,115,170,,,,,,,,
,,6531095c8da8ca2ccf8f8a9f,65af547fac09f8926668b53a,2024-01-23_07h56.38.546,bars,2023.2.3,Win32,29.94011976,657b66ea316d21385b68909f,,,,,,,,,,,2312.6949,2313.6938,,,2314.1939,2314.4448,,8,8,,,,,,,,,,,,,,,,bars/043.png,bars/mask001.png,,,,,,,,,,,,3,1,,,,,,,10,8,10,7,,,,,,,,,,,2313.6938,2314.1938,2314.4448,2316.3114,space,1.8578,,2316.3115,22,58,2317.3097,2317.3097,2317.3131,,,,0,11,11,11,1,30,130,,,,,,,,
,,6531095c8da8ca2ccf8f8a9f,65af547fac09f8926668b53a,2024-01-23_07h56.38.546,bars,2023.2.3,Win32,29.94011976,657b66ea316d21385b68909f,,,,,,,,,,,2317.3134,2318.3097,,,2318.8101,2319.0601,,151,151,,,,,,,,,,,,,,,,bars/004.png,bars/mask005.png,,,,,,,,,,,,1,2,,,,,,,8,10,10,10,,,,,,,,,,,2318.3098,2318.81,2319.0602,2321.4269,space,2.3522,,2321.4269,54,26,2322.4283,2322.4284,2322.444,,,,0,12,12,12,1,25,125,,,,,,,,
,,6531095c8da8ca2ccf8f8a9f,65af547fac09f8926668b53a,2024-01-23_07h56.38.546,bars,2023.2.3,Win32,29.94011976,657b66ea316d21385b68909f,,,,,,,,,,,2322.4445,2323.4419,,,2323.9427,2324.1816,,136,136,,,,,,,,,,,,,,,,bars/002.png,bars/mask001.png,,,,,,,,,,,,6,1,,,,,,,6,8,7,8,,,,,,,,,,,2323.4419,2323.9427,2324.1816,2329.1908,space,4.9952,,2329.1909,6,51,2330.1899,2330.1901,2330.2044,,,,0,13,13,13,1,130,85,,,,,,,,
,,6531095c8da8ca2ccf8f8a9f,65af547fac09f8926668b53a,2024-01-23_07h56.38.546,bars,2023.2.3,Win32,29.94011976,657b66ea316d21385b68909f,,,,,,,,,,,2330.2048,2331.2077,,,2331.7065,2331.9562,,50,50,,,,,,,,,,,,,,,,bars/046.png,bars/mask003.png,,,,,,,,,,,,0,2,,,,,,,4,10,1,10,,,,,,,,,,,2331.2078,2331.7065,2331.9563,2336.0272,space,4.0619,,2336.0272,75,35,2337.0218,2337.0219,2337.0363,,,,0,14,14,14,1,155,85,,,,,,,,
,,6531095c8da8ca2ccf8f8a9f,65af547fac09f8926668b53a,2024-01-23_07h56.38.546,bars,2023.2.3,Win32,29.94011976,657b66ea316d21385b68909f,,,,,,,,,,,2337.0367,2338.0257,,,2338.5292,2338.7789,,1,181,,,,,,,,,,,,,,,,bars/048.png,bars/mask000.png,,,,,,,,,,,,6,2,,,,,,,6,8,7,7,,,,,,,,,,,2338.0259,2338.5292,2338.7789,2342.4821,space,3.6871,,2342.4822,49,6,2343.4791,2343.4793,2343.4925,,,,0,15,15,15,1,50,175,,,,,,,,
,,6531095c8da8ca2ccf8f8a9f,65af547fac09f8926668b53a,2024-01-23_07h56.38.546,bars,2023.2.3,Win32,29.94011976,657b66ea316d21385b68909f,,,,,,,,,,,2343.4928,2344.4954,,,2344.995,2345.2453,,67,67,,,,,,,,,,,,,,,,bars/026.png,bars/mask007.png,,,,,,,,,,,,2,2,,,,,,,4,6,3,5,,,,,,,,,,,2344.4955,2344.995,2345.2453,2348.0464,space,2.7851,,2348.0464,32,18,2349.0443,2349.0444,2349.0578,,,,0,16,16,16,1,35,85,,,,,,,,
,,6531095c8da8ca2ccf8f8a9f,65af547fac09f8926668b53a,2024-01-23_07h56.38.546,bars,2023.2.3,Win32,29.94011976,657b66ea316d21385b68909f,,,,,,,,,,,2349.0581,2350.0606,,,2350.5534,2350.8026,,56,56,,,,,,,,,,,,,,,,bars/038.png,bars/mask001.png,,,,,,,,,,,,4,2,,,,,,,6,8,6,8,,,,,,,,,,,2350.0606,2350.5534,2350.8026,2354.4434,space,3.6311,,2354.4435,71,14,2355.4442,2355.4443,2355.4576,,,,0,17,17,17,1,165,70,,,,,,,,
,,6531095c8da8ca2ccf8f8a9f,65af547fac09f8926668b53a,2024-01-23_07h56.38.546,bars,2023.2.3,Win32,29.94011976,657b66ea316d21385b68909f,,,,,,,,,,,2355.458,2356.4581,,,2356.9509,2357.2012,,122,122,,,,,,,,,,,,,,,,bars/009.png,bars/mask008.png,,,,,,,,,,,,3,2,,,,,,,8,10,6,8,,,,,,,,,,,2356.4582,2356.9507,2357.2012,2359.519,space,2.3083,,2359.519,73,17,2360.5166,2360.5166,2360.5294,,,,0,18,18,18,1,15,105,,,,,,,,
,,6531095c8da8ca2ccf8f8a9f,65af547fac09f8926668b53a,2024-01-23_07h56.38.546,bars,2023.2.3,Win32,29.94011976,657b66ea316d21385b68909f,,,,,,,,,,,2360.5296,2361.5256,,,2362.0249,2362.2758,,131,131,,,,,,,,,,,,,,,,bars/004.png,bars/mask003.png,,,,,,,,,,,,7,2,,,,,,,6,8,6,9,,,,,,,,,,,2361.5256,2362.0247,2362.2758,2364.592,space,2.3009,,2364.592,74,6,2365.5911,2365.5912,2365.5923,,,,0,19,19,19,1,25,125,,,,,,,,
,,6531095c8da8ca2ccf8f8a9f,65af547fac09f8926668b53a,2024-01-23_07h56.38.546,bars,2023.2.3,Win32,29.94011976,657b66ea316d21385b68909f,,,,,,,,,,,2365.5927,2366.5899,,,2367.0914,2367.3409,,170,170,,,,,,,,,,,,,,,,bars/033.png,bars/mask006.png,,,,,,,,,,,,5,2,,,,,,,4,10,5,10,,,,,,,,,,,2366.59,2367.0913,2367.3409,2368.5919,space,1.2357,,2368.5919,35,15,2369.5893,2369.5894,2369.5909,,,,0,20,20,20,1,25,155,,,,,,,,
,,6531095c8da8ca2ccf8f8a9f,65af547fac09f8926668b53a,2024-01-23_07h56.38.546,bars,2023.2.3,Win32,29.94011976,657b66ea316d21385b68909f,,,,,,,,,,,2369.5912,2370.5895,,,2371.0897,2371.3396,,148,148,,,,,,,,,,,,,,,,bars/033.png,bars/mask001.png,,,,,,,,,,,,7,2,,,,,,,2,10,1,9,,,,,,,,,,,2370.5896,2371.0897,2371.3396,2373.6242,space,2.2681,,2373.6243,57,7,2374.6219,2374.622,2374.6355,,,,0,21,21,21,1,25,155,,,,,,,,
,,6531095c8da8ca2ccf8f8a9f,65af547fac09f8926668b53a,2024-01-23_07h56.38.546,bars,2023.2.3,Win32,29.94011976,657b66ea316d21385b68909f,,,,,,,,,,,2374.6358,2375.6386,,,2376.1382,2376.3884,,32,32,,,,,,,,,,,,,,,,bars/043.png,bars/mask009.png,,,,,,,,,,,,4,1,,,,,,,4,8,4,8,,,,,,,,,,,2375.6386,2376.1381,2376.3885,2377.4721,space,1.0679,,2377.4721,2,82,2378.4712,2378.4713,2378.4744,,,,0,22,22,22,1,30,130,,,,,,,,
,,6531095c8da8ca2ccf8f8a9f,65af547fac09f8926668b53a,2024-01-23_07h56.38.546,bars,2023.2.3,Win32,29.94011976,657b66ea316d21385b68909f,,,,,,,,,,,2378.4748,2379.4707,,,2379.9711,2380.2211,,41,221,,,,,,,,,,,,,,,,bars/013.png,bars/mask007.png,,,,,,,,,,,,0,2,,,,,,,6,6,5,6,,,,,,,,,,,2379.4708,2379.971,2380.2211,2385.3877,space,5.1508,,2385.3877,34,31,2386.3862,2386.3862,2386.4017,,,,0,23,23,23,1,75,10,,,,,,,,
,,6531095c8da8ca2ccf8f8a9f,65af547fac09f8926668b53a,2024-01-23_07h56.38.546,bars,2023.2.3,Win32,29.94011976,657b66ea316d21385b68909f,,,,,,,,,,,2386.4021,2387.4027,,,2387.9024,2388.1527,,124,124,,,,,,,,,,,,,,,,bars/049.png,bars/mask006.png,,,,,,,,,,,,7,2,,,,,,,4,8,2,10,,,,,,,,,,,2387.4027,2387.9024,2388.1528,2390.3198,space,2.1513,,2390.3198,36,9,2391.3175,2391.3176,2391.3311,,,,0,24,24,24,1,160,115,,,,,,,,
,,6531095c8da8ca2ccf8f8a9f,65af547fac09f8926668b53a,2024-01-23_07h56.38.546,bars,2023.2.3,Win32,29.94011976,657b66ea316d21385b68909f,,,,,,,,,,,2391.3315,2392.3346,,,2392.8268,2393.0762,,28,28,,,,,,,,,,,,,,,,bars/036.png,bars/mask007.png,,,,,,,,,,,,7,2,,,,,,,6,10,6,10,,,,,,,,,,,2392.3347,2392.8267,2393.0763,2396.1255,space,3.0335,,2396.1255,63,8,2397.1253,2397.1253,2397.1388,,,,0,25,25,25,1,145,20,,,,,,,,
,,6531095c8da8ca2ccf8f8a9f,65af547fac09f8926668b53a,2024-01-23_07h56.38.546,bars,2023.2.3,Win32,29.94011976,657b66ea316d21385b68909f,,,,,,,,,,,2397.1392,2398.1412,,,2398.6418,2398.8915,,152,152,,,,,,,,,,,,,,,,bars/033.png,bars/mask002.png,,,,,,,,,,,,8,2,,,,,,,4,10,4,9,,,,,,,,,,,2398.1414,2398.6417,2398.8917,2402.5591,space,3.6581,,2402.5592,53,3,2403.5568,2403.5569,2403.57,,,,0,26,26,26,1,25,155,,,,,,,,
,,6531095c8da8ca2ccf8f8a9f,65af547fac09f8926668b53a,2024-01-23_07h56.38.546,bars,2023.2.3,Win32,29.94011976,657b66ea316d21385b68909f,,,,,,,,,,,2403.5704,2404.5733,,,2405.0733,2405.3235,,44,44,,,,,,,,,,,,,,,,bars/035.png,bars/mask003.png,,,,,,,,,,,,4,2,,,,,,,6,8,6,8,,,,,,,,,,,2404.5734,2405.0732,2405.3236,2410.5569,space,5.2234,,2410.5569,49,16,2411.5551,2411.5551,2411.5681,,,,0,27,27,27,1,175,60,,,,,,,,
,,6531095c8da8ca2ccf8f8a9f,65af547fac09f8926668b53a,2024-01-23_07h56.38.546,bars,2023.2.3,Win32,29.94011976,657b66ea316d21385b68909f,,,,,,,,,,,2411.5684,2412.5715,,,2413.0714,2413.3216,,74,74,,,,,,,,,,,,,,,,bars/030.png,bars/mask004.png,,,,,,,,,,,,5,2,,,,,,,8,6,9,7,,,,,,,,,,,2412.5715,2413.0712,2413.3216,2418.1034,space,4.7662,,2418.1035,66,9,2419.1034,2419.1034,2419.1164,,,,0,28,28,28,1,140,65,,,,,,,,
,,6531095c8da8ca2ccf8f8a9f,65af547fac09f8926668b53a,2024-01-23_07h56.38.546,bars,2023.2.3,Win32,29.94011976,657b66ea316d21385b68909f,,,,,,,,,,,2419.1169,2420.1194,,,2420.62,2420.8692,,176,176,,,,,,,,,,,,,,,,bars/040.png,bars/mask009.png,,,,,,,,,,,,6,2,,,,,,,10,8,9,8,,,,,,,,,,,2420.1195,2420.6198,2420.8693,2426.1519,space,5.2668,,2426.1519,36,9,2427.1424,2427.1425,2427.158,,,,0,29,29,29,1,140,5,,,,,,,,
,,6531095c8da8ca2ccf8f8a9f,65af547fac09f8926668b53a,2024-01-23_07h56.38.546,bars,2023.2.3,Win32,29.94011976,657b66ea316d21385b68909f,,,,,,,,,,,2427.1587,2428.1583,,,2428.6597,2428.9083,,125,125,,,,,,,,,,,,,,,,bars/043.png,bars/mask004.png,,,,,,,,,,,,8,2,,,,,,,8,10,7,10,,,,,,,,,,,2428.1584,2428.6597,2428.9084,2433.8602,space,4.9356,,2433.8603,85,5,2434.8583,2434.8583,2434.8734,,,,0,30,30,30,1,30,130,,,,,,,,
,,6531095c8da8ca2ccf8f8a9f,65af547fac09f8926668b53a,2024-01-23_07h56.38.546,bars,2023.2.3,Win32,29.94011976,657b66ea316d21385b68909f,,,,,,,,,,,2434.8738,2435.875,,,2436.3746,2436.6247,,4,4,,,,,,,,,,,,,,,,bars/008.png,bars/mask002.png,,,,,,,,,,,,9,2,,,,,,,10,10,9,10,,,,,,,,,,,2435.875,2436.3745,2436.6247,2437.8923,space,1.2517,,2437.8924,74,4,2438.8907,2438.891,2438.8923,,,,0,31,31,31,1,110,0,,,,,,,,
,,6531095c8da8ca2ccf8f8a9f,65af547fac09f8926668b53a,2024-01-23_07h56.38.546,bars,2023.2.3,Win32,29.94011976,657b66ea316d21385b68909f,,,,,,,,,,,2438.8926,2439.8903,,,2440.3902,2440.6398,,163,163,,,,,,,,,,,,,,,,bars/020.png,bars/mask003.png,,,,,,,,,,,,6,2,,,,,,,10,10,10,8,,,,,,,,,,,2439.8903,2440.3902,2440.6399,2443.5975,space,2.9343,,2443.5975,48,7,2444.5972,2444.5974,2444.6106,,,,0,32,32,32,1,115,170,,,,,,,,
,,6531095c8da8ca2ccf8f8a9f,65af547fac09f8926668b53a,2024-01-23_07h56.38.546,bars,2023.2.3,Win32,29.94011976,657b66ea316d21385b68909f,,,,,,,,,,,2444.6112,2445.6139,,,2446.1141,2446.3635,,158,158,,,,,,,,,,,,,,,,bars/044.png,bars/mask000.png,,,,,,,,,,,,9,2,,,,,,,8,8,7,10,,,,,,,,,,,2445.6139,2446.114,2446.3636,2447.3969,space,1.0176,,2447.397,83,3,2448.3969,2448.3969,2448.4097,,,,0,33,33,33,1,75,155,,,,,,,,
,,6531095c8da8ca2ccf8f8a9f,65af547fac09f8926668b53a,2024-01-23_07h56.38.546,bars,2023.2.3,Win32,29.94011976,657b66ea316d21385b68909f,,,,,,,,,,,2448.41,2449.4132,,,2449.9046,2450.1547,,126,126,,,,,,,,,,,,,,,,bars/003.png,bars/mask004.png,,,,,,,,,,,,3,2,,,,,,,6,6,8,6,,,,,,,,,,,2449.4132,2449.9046,2450.1548,2452.4052,space,2.2349,,2452.4052,79,14,2453.404,2453.404,2453.4175,,,,0,34,34,34,1,25,140,,,,,,,,
,,6531095c8da8ca2ccf8f8a9f,65af547fac09f8926668b53a,2024-01-23_07h56.38.546,bars,2023.2.3,Win32,29.94011976,657b66ea316d21385b68909f,,,,,,,,,,,2453.4178,2454.4201,,,2454.9197,2455.1704,,3,183,,,,,,,,,,,,,,,,bars/015.png,bars/mask000.png,,,,,,,,,,,,2,2,,,,,,,4,8,3,9,,,,,,,,,,,2454.4201,2454.9195,2455.1705,2459.3032,space,4.1168,,2459.3032,73,23,2460.3022,2460.3023,2460.3156,,,,0,35,35,35,1,110,160,,,,,,,,
,,6531095c8da8ca2ccf8f8a9f,65af547fac09f8926668b53a,2024-01-23_07h56.38.546,bars,2023.2.3,Win32,29.94011976,657b66ea316d21385b68909f,,,,,,,,,,,2460.316,2461.3189,,,2461.8188,2462.0683,,130,130,,,,,,,,,,,,,,,,bars/049.png,bars/mask006.png,,,,,,,,,,,,3,2,,,,,,,6,6,8,5,,,,,,,,,,,2461.3189,2461.8188,2462.0683,2464.6355,space,2.5508,,2464.6356,30,15,2465.6339,2465.634,2465.6473,,,,0,36,36,36,1,160,115,,,,,,,,
,,6531095c8da8ca2ccf8f8a9f,65af547fac09f8926668b53a,2024-01-23_07h56.38.546,bars,2023.2.3,Win32,29.94011976,657b66ea316d21385b68909f,,,,,,,,,,,2465.6477,2466.6506,,,2467.1508,2467.4004,,53,233,,,,,,,,,,,,,,,,bars/025.png,bars/mask004.png,,,,,,,,,,,,6,2,,,,,,,4,8,4,10,,,,,,,,,,,2466.6508,2467.1508,2467.4004,2473.7507,space,6.3342,,2473.7507,52,13,2474.7489,2474.749,2474.7634,,,,0,37,37,37,1,105,40,,,,,,,,
,,6531095c8da8ca2ccf8f8a9f,65af547fac09f8926668b53a,2024-01-23_07h56.38.546,bars,2023.2.3,Win32,29.94011976,657b66ea316d21385b68909f,,,,,,,,,,,2474.7637,2475.7651,,,2476.2656,2476.5166,,88,88,,,,,,,,,,,,,,,,bars/041.png,bars/mask006.png,,,,,,,,,,,,5,2,,,,,,,2,6,3,5,,,,,,,,,,,2475.7652,2476.2655,2476.5167,2479.1004,space,2.5689,,2479.1004,68,3,2480.098,2480.0981,2480.1124,,,,0,38,38,38,1,20,85,,,,,,,,
,,6531095c8da8ca2ccf8f8a9f,65af547fac09f8926668b53a,2024-01-23_07h56.38.546,bars,2023.2.3,Win32,29.94011976,657b66ea316d21385b68909f,,,,,,,,,,,2480.1128,2481.1141,,,2481.6106,2481.856,,138,138,,,,,,,,,,,,,,,,bars/004.png,bars/mask005.png,,,,,,,,,,,,2,2,,,,,,,0,4,0,3,,,,,,,,,,,2481.1142,2481.6106,2481.8561,2485.5054,space,3.6338,,2485.5055,67,13,2486.5054,2486.5055,2486.5183,,,,0,39,39,39,1,25,125,,,,,,,,
,,6531095c8da8ca2ccf8f8a9f,65af547fac09f8926668b53a,2024-01-23_07h56.38.546,bars,2023.2.3,Win32,29.94011976,657b66ea316d21385b68909f,,,,,,,,,,,2486.5186,2487.5215,,,2488.0214,2488.2715,,104,104,,,,,,,,,,,,,,,,bars/005.png,bars/mask007.png,,,,,,,,,,,,0,2,,,,,,,2,2,1,2,,,,,,,,,,,2487.5215,2488.0214,2488.2715,2490.9873,space,2.6998,,2490.9874,86,36,2491.9868,2491.9869,2491.9993,,,,0,40,40,40,1,10,140,,,,,,,,
,,6531095c8da8ca2ccf8f8a9f,65af547fac09f8926668b53a,2024-01-23_07h56.38.546,bars,2023.2.3,Win32,29.94011976,657b66ea316d21385b68909f,,,,,,,,,,,2492.0001,2493.0032,,,2493.5034,2493.7533,,92,92,,,,,,,,,,,,,,,,bars/039.png,bars/mask004.png,,,,,,,,,,,,2,2,,,,,,,4,4,4,3,,,,,,,,,,,2493.0033,2493.5033,2493.7534,2497.2357,space,3.4656,,2497.2358,83,13,2498.2358,2498.2359,2498.2485,,,,0,41,41,41,1,175,105,,,,,,,,
,,6531095c8da8ca2ccf8f8a9f,65af547fac09f8926668b53a,2024-01-23_07h56.38.546,bars,2023.2.3,Win32,29.94011976,657b66ea316d21385b68909f,,,,,,,,,,,2498.2489,2499.2521,,,2499.7525,2500.0019,,77,77,,,,,,,,,,,,,,,,bars/011.png,bars/mask005.png,,,,,,,,,,,,4,2,,,,,,,2,6,3,5,,,,,,,,,,,2499.2521,2499.7524,2500.0019,2503.2509,space,3.2376,,2503.2511,83,8,2504.2506,2504.2507,2504.2635,,,,0,42,42,42,1,160,85,,,,,,,,
,,6531095c8da8ca2ccf8f8a9f,65af547fac09f8926668b53a,2024-01-23_07h56.38.546,bars,2023.2.3,Win32,29.94011976,657b66ea316d21385b68909f,,,,,,,,,,,2504.2638,2505.2526,,,2505.7507,2505.9915,,31,31,,,,,,,,,,,,,,,,bars/010.png,bars/mask004.png,,,,,,,,,,,,1,2,,,,,,,0,4,0,3,,,,,,,,,,,2505.2528,2505.7506,2505.9915,2509.8251,space,3.8173,,2509.8252,46,24,2510.8239,2510.8239,2510.8375,,,,0,43,43,43,1,165,55,,,,,,,,
,,6531095c8da8ca2ccf8f8a9f,65af547fac09f8926668b53a,2024-01-23_07h56.38.546,bars,2023.2.3,Win32,29.94011976,657b66ea316d21385b68909f,,,,,,,,,,,2510.8379,2511.8407,,,2512.3403,2512.5916,,44,224,,,,,,,,,,,,,,,,bars/029.png,bars/mask002.png,,,,,,,,,,,,2,2,,,,,,,2,2,0,2,,,,,,,,,,,2511.8408,2512.3403,2512.5916,2517.1402,space,4.5341,,2517.1403,46,1,2518.1388,2518.139,2518.1524,,,,0,44,44,44,1,90,45,,,,,,,,
,,6531095c8da8ca2ccf8f8a9f,65af547fac09f8926668b53a,2024-01-23_07h56.38.546,bars,2023.2.3,Win32,29.94011976,657b66ea316d21385b68909f,,,,,,,,,,,2518.1528,2519.1556,,,2519.6559,2519.9054,,169,-11,,,,,,,,,,,,,,,,bars/033.png,bars/mask001.png,,,,,,,,,,,,1,2,,,,,,,4,0,5,1,,,,,,,,,,,2519.1558,2519.6558,2519.9055,2522.2394,space,2.3183,,2522.2395,36,14,2523.2385,2523.2385,2523.2517,,,,0,45,45,45,1,25,155,,,,,,,,
,,6531095c8da8ca2ccf8f8a9f,65af547fac09f8926668b53a,2024-01-23_07h56.38.546,bars,2023.2.3,Win32,29.94011976,657b66ea316d21385b68909f,,,,,,,,,,,2523.2521,2524.2543,,,2524.7536,2525.0043,,65,65,,,,,,,,,,,,,,,,bars/039.png,bars/mask002.png,,,,,,,,,,,,0,2,,,,,,,2,0,2,1,,,,,,,,,,,2524.2544,2524.7536,2525.0044,2526.1046,space,1.0842,,2526.1047,70,40,2527.1029,2527.103,2527.1044,,,,0,46,46,46,1,175,105,,,,,,,,
,,6531095c8da8ca2ccf8f8a9f,65af547fac09f8926668b53a,2024-01-23_07h56.38.546,bars,2023.2.3,Win32,29.94011976,657b66ea316d21385b68909f,,,,,,,,,,,2527.1047,2528.0703,,,2528.57,2528.8191,,106,106,,,,,,,,,,,,,,,,bars/041.png,bars/mask004.png,,,,,,,,,,,,1,2,,,,,,,0,2,1,2,,,,,,,,,,,2528.0703,2528.5699,2528.8192,2531.3889,space,2.5532,,2531.3889,86,21,2532.386,2532.386,2532.3997,,,,0,47,47,47,1,20,85,,,,,,,,
,,6531095c8da8ca2ccf8f8a9f,65af547fac09f8926668b53a,2024-01-23_07h56.38.546,bars,2023.2.3,Win32,29.94011976,657b66ea316d21385b68909f,,,,,,,,,,,2532.4,2533.4018,,,2533.8935,2534.1435,,59,59,,,,,,,,,,,,,,,,bars/047.png,bars/mask003.png,,,,,,,,,,,,0,2,,,,,,,2,0,2,0,,,,,,,,,,,2533.4018,2533.8934,2534.1435,2536.5097,space,2.3501,,2536.5098,44,11,2537.5093,2537.5093,2537.5235,,,,0,48,48,48,1,15,70,,,,,,,,
,,6531095c8da8ca2ccf8f8a9f,65af547fac09f8926668b53a,2024-01-23_07h56.38.546,bars,2023.2.3,Win32,29.94011976,657b66ea316d21385b68909f,,,,,,,,,,,2537.5238,2538.526,,,2539.0259,2539.2757,,165,-15,,,,,,,,,,,,,,,,bars/023.png,bars/mask003.png,,,,,,,,,,,,0,1,,,,,,,4,0,4,0,,,,,,,,,,,2538.5261,2539.0257,2539.2757,2543.1848,space,3.8993,,2543.1848,35,50,2544.1827,2544.1827,2544.2008,,,,0,49,49,49,1,20,115,,,,,,,,
,,6531095c8da8ca2ccf8f8a9f,65af547fac09f8926668b53a,2024-01-23_07h56.38.546,bars,2023.2.3,Win32,29.94011976,657b66ea316d21385b68909f,,,,,,,,,,,,,,,,,,,,,,,,,,,,,,,,,,,,,,,,,,,,,,,,,,,,,,,,,,,,,,,,,,,,,,,,,,,,,,,,,,,,,,,,,,,,,2544.2008,2604.2933,0,1,1,4,1,sequence_tables/blk001.csv
,,6531095c8da8ca2ccf8f8a9f,65af547fac09f8926668b53a,2024-01-23_07h56.38.546,bars,2023.2.3,Win32,29.94011976,657b66ea316d21385b68909f,,,,,,,,,,,2744.3663,2745.3213,,,2745.8117,2746.0616,,139,139,,,,,,,,,,,,,,,,bars/015.png,bars/mask001.png,,,,,,,,,,,,2,2,,,,,,,7,5,7,6,,,,,,2604.3114,2744.3134,space,139.9946,,2745.3213,2745.8117,2746.0616,2747.5796,space,1.5078,,2747.5796,29,21,2748.5782,2748.5783,2748.5938,,,,0,0,0,0,1,110,160,,,,,,,,
,,6531095c8da8ca2ccf8f8a9f,65af547fac09f8926668b53a,2024-01-23_07h56.38.546,bars,2023.2.3,Win32,29.94011976,657b66ea316d21385b68909f,,,,,,,,,,,2748.5943,2749.5939,,,2750.0938,2750.3439,,49,49,,,,,,,,,,,,,,,,bars/000.png,bars/mask009.png,,,,,,,,,,,,7,1,,,,,,,9,3,10,2,,,,,,,,,,,2749.5939,2750.0936,2750.3439,2751.8774,space,1.5176,,2751.8776,9,84,2752.8766,2752.8767,2752.8908,,,,0,1,1,1,1,40,145,,,,,,,,
,,6531095c8da8ca2ccf8f8a9f,65af547fac09f8926668b53a,2024-01-23_07h56.38.546,bars,2023.2.3,Win32,29.94011976,657b66ea316d21385b68909f,,,,,,,,,,,2752.8912,2753.893,,,2754.3928,2754.6428,,139,139,,,,,,,,,,,,,,,,bars/043.png,bars/mask003.png,,,,,,,,,,,,1,2,,,,,,,7,1,6,2,,,,,,,,,,,2753.8932,2754.3927,2754.6429,2760.2256,space,5.567,,2760.2257,71,9,2761.2245,2761.2247,2761.2392,,,,0,2,2,2,1,30,130,,,,,,,,
,,6531095c8da8ca2ccf8f8a9f,65af547fac09f8926668b53a,2024-01-23_07h56.38.546,bars,2023.2.3,Win32,29.94011976,657b66ea316d21385b68909f,,,,,,,,,,,2761.2396,2762.2414,,,2762.741,2762.9908,,72,72,,,,,,,,,,,,,,,,bars/042.png,bars/mask001.png,,,,,,,,,,,,2,2,,,,,,,5,3,5,2,,,,,,,,,,,2762.2415,2762.741,2762.9908,2765.9577,space,2.9494,,2765.9578,73,3,2766.9567,2766.9567,2766.9696,,,,0,3,3,3,1,145,75,,,,,,,,
,,6531095c8da8ca2ccf8f8a9f,65af547fac09f8926668b53a,2024-01-23_07h56.38.546,bars,2023.2.3,Win32,29.94011976,657b66ea316d21385b68909f,,,,,,,,,,,2766.9699,2767.973,,,2768.4731,2768.7227,,160,160,,,,,,,,,,,,,,,,bars/042.png,bars/mask002.png,,,,,,,,,,,,3,1,,,,,,,7,1,6,2,,,,,,,,,,,2767.9733,2768.4731,2768.7228,2770.9744,space,2.2345,,2770.9744,15,85,2771.9724,2771.9725,2771.9757,,,,0,4,4,4,1,145,75,,,,,,,,
,,6531095c8da8ca2ccf8f8a9f,65af547fac09f8926668b53a,2024-01-23_07h56.38.546,bars,2023.2.3,Win32,29.94011976,657b66ea316d21385b68909f,,,,,,,,,,,2771.9761,2772.972,,,2773.4721,2773.7217,,68,68,,,,,,,,,,,,,,,,bars/029.png,bars/mask004.png,,,,,,,,,,,,1,1,,,,,,,5,0,5,0,,,,,,,,,,,2772.9722,2773.4721,2773.7217,2776.7052,space,2.9665,,2776.7052,22,23,2777.7044,2777.7045,2777.7178,,,,0,5,5,5,1,90,45,,,,,,,,
,,6531095c8da8ca2ccf8f8a9f,65af547fac09f8926668b53a,2024-01-23_07h56.38.546,bars,2023.2.3,Win32,29.94011976,657b66ea316d21385b68909f,,,,,,,,,,,2777.7182,2778.7207,,,2779.2208,2779.4706,,107,107,,,,,,,,,,,,,,,,bars/045.png,bars/mask004.png,,,,,,,,,,,,6,1,,,,,,,7,2,8,3,,,,,,,,,,,2778.7209,2779.2206,2779.4707,2783.0539,space,3.5667,,2783.054,7,83,2784.0526,2784.0526,2784.0653,,,,0,6,6,6,1,100,10,,,,,,,,
,,6531095c8da8ca2ccf8f8a9f,65af547fac09f8926668b53a,2024-01-23_07h56.38.546,bars,2023.2.3,Win32,29.94011976,657b66ea316d21385b68909f,,,,,,,,,,,2784.0656,2785.0692,,,2785.5692,2785.8189,,35,35,,,,,,,,,,,,,,,,bars/044.png,bars/mask000.png,,,,,,,,,,,,0,1,,,,,,,9,0,10,1,,,,,,,,,,,2785.0692,2785.5692,2785.8189,2786.919,space,1.0846,,2786.919,40,60,2787.9186,2787.9189,2787.9204,,,,0,7,7,7,1,75,155,,,,,,,,
,,6531095c8da8ca2ccf8f8a9f,65af547fac09f8926668b53a,2024-01-23_07h56.38.546,bars,2023.2.3,Win32,29.94011976,657b66ea316d21385b68909f,,,,,,,,,,,2787.9208,2788.9182,,,2789.418,2789.6687,,150,150,,,,,,,,,,,,,,,,bars/012.png,bars/mask009.png,,,,,,,,,,,,0,2,,,,,,,7,0,6,0,,,,,,,,,,,2788.9182,2789.4179,2789.6687,2790.9186,space,1.235,,2790.9187,60,45,2791.9173,2791.9173,2791.9208,,,,0,8,8,8,1,90,15,,,,,,,,
,,6531095c8da8ca2ccf8f8a9f,65af547fac09f8926668b53a,2024-01-23_07h56.38.546,bars,2023.2.3,Win32,29.94011976,657b66ea316d21385b68909f,,,,,,,,,,,2791.9212,2792.9179,,,2793.4186,2793.6671,,54,54,,,,,,,,,,,,,,,,bars/029.png,bars/mask004.png,,,,,,,,,,,,1,2,,,,,,,5,2,4,1,,,,,,,,,,,2792.9182,2793.4185,2793.6672,2796.2338,space,2.5512,,2796.234,36,9,2797.2326,2797.2328,2797.2459,,,,0,9,9,9,1,90,45,,,,,,,,
,,6531095c8da8ca2ccf8f8a9f,65af547fac09f8926668b53a,2024-01-23_07h56.38.546,bars,2023.2.3,Win32,29.94011976,657b66ea316d21385b68909f,,,,,,,,,,,2797.2463,2798.2495,,,2798.7497,2798.9999,,140,140,,,,,,,,,,,,,,,,bars/037.png,bars/mask001.png,,,,,,,,,,,,3,1,,,,,,,3,0,4,0,,,,,,,,,,,2798.2496,2798.7497,2798.9999,2801.3654,space,2.3546,,2801.3655,10,35,2802.3648,2802.3649,2802.3691,,,,0,10,10,10,1,150,105,,,,,,,,
,,6531095c8da8ca2ccf8f8a9f,65af547fac09f8926668b53a,2024-01-23_07h56.38.546,bars,2023.2.3,Win32,29.94011976,657b66ea316d21385b68909f,,,,,,,,,,,2802.3698,2803.3645,,,2803.8566,2804.1074,,28,208,,,,,,,,,,,,,,,,bars/041.png,bars/mask003.png,,,,,,,,,,,,1,1,,,,,,,1,0,1,0,,,,,,,,,,,2803.3647,2803.8565,2804.1074,2809.3559,space,5.2323,,2809.3561,8,57,2810.355,2810.3552,2810.3693,,,,0,11,11,11,1,20,85,,,,,,,,
,,6531095c8da8ca2ccf8f8a9f,65af547fac09f8926668b53a,2024-01-23_07h56.38.546,bars,2023.2.3,Win32,29.94011976,657b66ea316d21385b68909f,,,,,,,,,,,2810.3697,2811.3711,,,2811.871,2812.1218,,91,91,,,,,,,,,,,,,,,,bars/027.png,bars/mask001.png,,,,,,,,,,,,1,1,,,,,,,3,0,3,0,,,,,,,,,,,2811.3711,2811.8708,2812.1219,2815.3552,space,3.2173,,2815.3552,19,41,2816.3544,2816.3544,2816.3684,,,,0,12,12,12,1,110,50,,,,,,,,
,,6531095c8da8ca2ccf8f8a9f,65af547fac09f8926668b53a,2024-01-23_07h56.38.546,bars,2023.2.3,Win32,29.94011976,657b66ea316d21385b68909f,,,,,,,,,,,2816.3687,2817.3708,,,2817.863,2818.1035,,166,-14,,,,,,,,,,,,,,,,bars/008.png,bars/mask007.png,,,,,,,,,,,,0,2,,,,,,,5,0,4,0,,,,,,,,,,,2817.3708,2817.8629,2818.1038,2822.0869,space,3.9666,,2822.087,56,14,2823.0856,2823.0857,2823.1008,,,,0,13,13,13,1,110,0,,,,,,,,
,,6531095c8da8ca2ccf8f8a9f,65af547fac09f8926668b53a,2024-01-23_07h56.38.546,bars,2023.2.3,Win32,29.94011976,657b66ea316d21385b68909f,,,,,,,,,,,2823.101,2824.1017,,,2824.5935,2824.8431,,90,90,,,,,,,,,,,,,,,,bars/003.png,bars/mask001.png,,,,,,,,,,,,0,2,,,,,,,3,0,3,2,,,,,,,,,,,2824.1018,2824.5934,2824.8433,2828.7262,space,3.8665,,2828.7262,65,50,2829.7251,2829.7253,2829.7398,,,,0,14,14,14,1,25,140,,,,,,,,
,,6531095c8da8ca2ccf8f8a9f,65af547fac09f8926668b53a,2024-01-23_07h56.38.546,bars,2023.2.3,Win32,29.94011976,657b66ea316d21385b68909f,,,,,,,,,,,2829.7402,2830.7422,,,2831.242,2831.492,,117,117,,,,,,,,,,,,,,,,bars/007.png,bars/mask004.png,,,,,,,,,,,,0,1,,,,,,,5,2,4,3,,,,,,,,,,,2830.7422,2831.2419,2831.4921,2832.7923,space,1.2889,,2832.7923,58,62,2833.7911,2833.7912,2833.796,,,,0,15,15,15,1,175,55,,,,,,,,
,,6531095c8da8ca2ccf8f8a9f,65af547fac09f8926668b53a,2024-01-23_07h56.38.546,bars,2023.2.3,Win32,29.94011976,657b66ea316d21385b68909f,,,,,,,,,,,2833.7967,2834.791,,,2835.2909,2835.5407,,144,-36,,,,,,,,,,,,,,,,bars/049.png,bars/mask008.png,,,,,,,,,,,,4,1,,,,,,,7,4,8,3,,,,,,,,,,,2834.7911,2835.2907,2835.5407,2838.8237,space,3.2682,,2838.8241,16,29,2839.823,2839.823,2839.8358,,,,0,16,16,16,1,160,115,,,,,,,,
,,6531095c8da8ca2ccf8f8a9f,65af547fac09f8926668b53a,2024-01-23_07h56.38.546,bars,2023.2.3,Win32,29.94011976,657b66ea316d21385b68909f,,,,,,,,,,,2839.8361,2840.8237,,,2841.3232,2841.5726,,102,102,,,,,,,,,,,,,,,,bars/021.png,bars/mask002.png,,,,,,,,,,,,0,2,,,,,,,9,2,9,3,,,,,,,,,,,2840.8238,2841.3231,2841.5726,2845.0557,space,3.4667,,2845.0558,53,32,2846.0554,2846.0555,2846.0701,,,,0,17,17,17,1,155,70,,,,,,,,
,,6531095c8da8ca2ccf8f8a9f,65af547fac09f8926668b53a,2024-01-23_07h56.38.546,bars,2023.2.3,Win32,29.94011976,657b66ea316d21385b68909f,,,,,,,,,,,2846.071,2847.0724,,,2847.5715,2847.8223,,96,96,,,,,,,,,,,,,,,,bars/021.png,bars/mask009.png,,,,,,,,,,,,0,2,,,,,,,10,0,10,1,,,,,,,,,,,2847.0724,2847.5714,2847.8224,2850.8384,space,3.0042,,2850.8384,59,26,2851.837,2851.8371,2851.8499,,,,0,18,18,18,1,155,70,,,,,,,,
,,6531095c8da8ca2ccf8f8a9f,65af547fac09f8926668b53a,2024-01-23_07h56.38.546,bars,2023.2.3,Win32,29.94011976,657b66ea316d21385b68909f,,,,,,,,,,,2851.878,2852.8618,,,2853.3535,2853.6032,,162,162,,,,,,,,,,,,,,,,bars/023.png,bars/mask006.png,,,,,,,,,,,,0,1,,,,,,,10,0,7,0,,,,,,,,,,,2852.8619,2853.3535,2853.6032,2854.77,space,1.1562,,2854.7701,38,47,2855.7693,2855.7694,2855.7724,,,,0,19,19,19,1,20,115,,,,,,,,
,,6531095c8da8ca2ccf8f8a9f,65af547fac09f8926668b53a,2024-01-23_07h56.38.546,bars,2023.2.3,Win32,29.94011976,657b66ea316d21385b68909f,,,,,,,,,,,2855.7728,2856.7692,,,2857.2694,2857.5192,,141,141,,,,,,,,,,,,,,,,bars/030.png,bars/mask000.png,,,,,,,,,,,,7,1,,,,,,,8,2,7,3,,,,,,,,,,,2856.7693,2857.2694,2857.5192,2859.9031,space,2.3711,,2859.9031,1,76,2860.9015,2860.9015,2860.9145,,,,0,20,20,20,1,140,65,,,,,,,,
,,6531095c8da8ca2ccf8f8a9f,65af547fac09f8926668b53a,2024-01-23_07h56.38.546,bars,2023.2.3,Win32,29.94011976,657b66ea316d21385b68909f,,,,,,,,,,,2860.9149,2861.9181,,,2862.418,2862.6677,,55,55,,,,,,,,,,,,,,,,bars/026.png,bars/mask004.png,,,,,,,,,,,,3,1,,,,,,,10,4,10,4,,,,,,,,,,,2861.9183,2862.418,2862.6683,2865.2178,space,2.5343,,2865.2179,20,30,2866.2172,2866.2172,2866.2304,,,,0,21,21,21,1,35,85,,,,,,,,
,,6531095c8da8ca2ccf8f8a9f,65af547fac09f8926668b53a,2024-01-23_07h56.38.546,bars,2023.2.3,Win32,29.94011976,657b66ea316d21385b68909f,,,,,,,,,,,2866.2308,2867.2335,,,2867.7333,2867.9842,,104,104,,,,,,,,,,,,,,,,bars/012.png,bars/mask009.png,,,,,,,,,,,,4,1,,,,,,,8,2,7,2,,,,,,,,,,,2867.2336,2867.7332,2867.9846,2872.6659,space,4.6649,,2872.666,14,89,2873.6657,2873.6657,2873.6787,,,,0,22,22,22,1,90,15,,,,,,,,
,,6531095c8da8ca2ccf8f8a9f,65af547fac09f8926668b53a,2024-01-23_07h56.38.546,bars,2023.2.3,Win32,29.94011976,657b66ea316d21385b68909f,,,,,,,,,,,2873.6791,2874.6818,,,2875.1821,2875.4317,,91,91,,,,,,,,,,,,,,,,bars/011.png,bars/mask008.png,,,,,,,,,,,,0,2,,,,,,,10,0,9,0,,,,,,,,,,,2874.6819,2875.182,2875.4318,2878.9905,space,3.549,,2878.9906,69,6,2879.989,2879.9891,2880.0045,,,,0,23,23,23,1,160,85,,,,,,,,
,,6531095c8da8ca2ccf8f8a9f,65af547fac09f8926668b53a,2024-01-23_07h56.38.546,bars,2023.2.3,Win32,29.94011976,657b66ea316d21385b68909f,,,,,,,,,,,2880.0049,2881.0054,,,2881.5056,2881.7554,,43,43,,,,,,,,,,,,,,,,bars/010.png,bars/mask002.png,,,,,,,,,,,,0,2,,,,,,,10,0,10,0,,,,,,,,,,,2881.0054,2881.5055,2881.7555,2887.1225,space,5.3511,,2887.1226,58,12,2888.121,2888.121,2888.1526,,,,0,24,24,24,1,165,55,,,,,,,,
,,6531095c8da8ca2ccf8f8a9f,65af547fac09f8926668b53a,2024-01-23_07h56.38.546,bars,2023.2.3,Win32,29.94011976,657b66ea316d21385b68909f,,,,,,,,,,,2888.1532,2889.1466,,,2889.6465,2889.8959,,129,129,,,,,,,,,,,,,,,,bars/008.png,bars/mask006.png,,,,,,,,,,,,3,1,,,,,,,8,0,8,2,,,,,,,,,,,2889.1466,2889.6462,2889.8962,2890.8975,space,0.9854,,2890.8976,19,51,2891.8944,2891.8945,2891.8974,,,,0,25,25,25,1,110,0,,,,,,,,
,,6531095c8da8ca2ccf8f8a9f,65af547fac09f8926668b53a,2024-01-23_07h56.38.546,bars,2023.2.3,Win32,29.94011976,657b66ea316d21385b68909f,,,,,,,,,,,2891.8978,2892.8964,,,2893.386,2893.6363,,29,29,,,,,,,,,,,,,,,,bars/006.png,bars/mask008.png,,,,,,,,,,,,8,1,,,,,,,10,0,10,2,,,,,,,,,,,2892.8966,2893.3859,2893.6363,2894.554,space,0.9015,,2894.554,6,71,2895.5508,2895.5509,2895.5522,,,,0,26,26,26,1,35,100,,,,,,,,
,,6531095c8da8ca2ccf8f8a9f,65af547fac09f8926668b53a,2024-01-23_07h56.38.546,bars,2023.2.3,Win32,29.94011976,657b66ea316d21385b68909f,,,,,,,,,,,2895.5528,2896.5516,,,2897.0518,2897.302,,128,128,,,,,,,,,,,,,,,,bars/003.png,bars/mask000.png,,,,,,,,,,,,1,2,,,,,,,8,2,6,2,,,,,,,,,,,2896.5516,2897.0517,2897.302,2901.6525,space,4.3345,,2901.6525,77,12,2902.6504,2902.6505,2902.6654,,,,0,27,27,27,1,25,140,,,,,,,,
,,6531095c8da8ca2ccf8f8a9f,65af547fac09f8926668b53a,2024-01-23_07h56.38.546,bars,2023.2.3,Win32,29.94011976,657b66ea316d21385b68909f,,,,,,,,,,,2902.6658,2903.6668,,,2904.1674,2904.4082,,88,88,,,,,,,,,,,,,,,,bars/001.png,bars/mask003.png,,,,,,,,,,,,4,2,,,,,,,6,4,6,4,,,,,,,,,,,2903.6668,2904.1674,2904.4082,2908.575,space,4.1559,,2908.575,42,3,2909.5738,2909.5739,2909.5871,,,,0,28,28,28,1,130,85,,,,,,,,
,,6531095c8da8ca2ccf8f8a9f,65af547fac09f8926668b53a,2024-01-23_07h56.38.546,bars,2023.2.3,Win32,29.94011976,657b66ea316d21385b68909f,,,,,,,,,,,2909.5876,2910.5903,,,2911.0907,2911.3402,,128,128,,,,,,,,,,,,,,,,bars/025.png,bars/mask007.png,,,,,,,,,,,,1,1,,,,,,,4,6,5,7,,,,,,,,,,,2910.5904,2911.0907,2911.3403,2916.8065,space,5.4524,,2916.8065,23,88,2917.8056,2917.8057,2917.8218,,,,0,29,29,29,1,105,40,,,,,,,,
,,6531095c8da8ca2ccf8f8a9f,65af547fac09f8926668b53a,2024-01-23_07h56.38.546,bars,2023.2.3,Win32,29.94011976,657b66ea316d21385b68909f,,,,,,,,,,,2917.8222,2918.8217,,,2919.3136,2919.5642,,74,74,,,,,,,,,,,,,,,,bars/028.png,bars/mask002.png,,,,,,,,,,,,0,1,,,,,,,6,8,7,8,,,,,,,,,,,2918.8218,2919.3136,2919.5642,2920.6644,space,1.0861,,2920.6645,29,46,2921.6627,2921.6627,2921.6642,,,,0,30,30,30,1,45,120,,,,,,,,
,,6531095c8da8ca2ccf8f8a9f,65af547fac09f8926668b53a,2024-01-23_07h56.38.546,bars,2023.2.3,Win32,29.94011976,657b66ea316d21385b68909f,,,,,,,,,,,2921.6645,2922.6624,,,2923.1618,2923.412,,94,94,,,,,,,,,,,,,,,,bars/019.png,bars/mask009.png,,,,,,,,,,,,4,2,,,,,,,8,6,7,6,,,,,,,,,,,2922.6625,2923.1617,2923.4121,2926.7302,space,3.3014,,2926.7303,49,11,2927.7284,2927.7285,2927.744,,,,0,31,31,31,1,45,105,,,,,,,,
,,6531095c8da8ca2ccf8f8a9f,65af547fac09f8926668b53a,2024-01-23_07h56.38.546,bars,2023.2.3,Win32,29.94011976,657b66ea316d21385b68909f,,,,,,,,,,,2927.7443,2928.7443,,,2929.2363,2929.4781,,22,22,,,,,,,,,,,,,,,,bars/014.png,bars/mask005.png,,,,,,,,,,,,1,2,,,,,,,6,4,7,3,,,,,,,,,,,2928.7444,2929.2362,2929.4782,2930.3812,space,0.8868,,2930.3813,58,22,2931.3688,2931.3689,2931.3817,,,,0,32,32,32,1,80,0,,,,,,,,
,,6531095c8da8ca2ccf8f8a9f,65af547fac09f8926668b53a,2024-01-23_07h56.38.546,bars,2023.2.3,Win32,29.94011976,657b66ea316d21385b68909f,,,,,,,,,,,2931.3821,2932.3853,,,2932.8856,2933.1348,,65,65,,,,,,,,,,,,,,,,bars/029.png,bars/mask005.png,,,,,,,,,,,,1,2,,,,,,,8,6,8,4,,,,,,,,,,,2932.3853,2932.8856,2933.1348,2937.4178,space,4.2657,,2937.418,25,20,2938.4174,2938.4175,2938.4309,,,,0,33,33,33,1,90,45,,,,,,,,
,,6531095c8da8ca2ccf8f8a9f,65af547fac09f8926668b53a,2024-01-23_07h56.38.546,bars,2023.2.3,Win32,29.94011976,657b66ea316d21385b68909f,,,,,,,,,,,2938.4312,2939.4337,,,2939.9343,2940.1844,,154,-26,,,,,,,,,,,,,,,,bars/040.png,bars/mask003.png,,,,,,,,,,,,5,1,,,,,,,10,8,10,7,,,,,,,,,,,2939.4338,2939.934,2940.1845,2943.8837,space,3.6869,,2943.8839,14,31,2944.882,2944.882,2944.8963,,,,0,34,34,34,1,140,5,,,,,,,,
,,6531095c8da8ca2ccf8f8a9f,65af547fac09f8926668b53a,2024-01-23_07h56.38.546,bars,2023.2.3,Win32,29.94011976,657b66ea316d21385b68909f,,,,,,,,,,,2944.8968,2945.8987,,,2946.3986,2946.6487,,69,-111,,,,,,,,,,,,,,,,bars/042.png,bars/mask003.png,,,,,,,,,,,,8,2,,,,,,,8,10,6,10,,,,,,,,,,,2945.8989,2946.3985,2946.6488,2952.0656,space,5.3986,,2952.0656,76,6,2953.0642,2953.0643,2953.0786,,,,0,35,35,35,1,145,75,,,,,,,,
,,6531095c8da8ca2ccf8f8a9f,65af547fac09f8926668b53a,2024-01-23_07h56.38.546,bars,2023.2.3,Win32,29.94011976,657b66ea316d21385b68909f,,,,,,,,,,,2953.0806,2954.081,,,2954.5809,2954.8306,,178,178,,,,,,,,,,,,,,,,bars/036.png,bars/mask009.png,,,,,,,,,,,,2,2,,,,,,,6,8,7,8,,,,,,,,,,,2954.081,2954.5808,2954.8306,2962.371,space,7.5318,,2962.3711,33,22,2963.3707,2963.3707,2963.3718,,,,0,36,36,36,1,145,20,,,,,,,,
,,6531095c8da8ca2ccf8f8a9f,65af547fac09f8926668b53a,2024-01-23_07h56.38.546,bars,2023.2.3,Win32,29.94011976,657b66ea316d21385b68909f,,,,,,,,,,,2963.3721,2964.3703,,,2964.8696,2965.1198,,164,164,,,,,,,,,,,,,,,,bars/044.png,bars/mask001.png,,,,,,,,,,,,4,2,,,,,,,4,6,4,6,,,,,,,,,,,2964.3703,2964.8696,2965.1198,2966.1377,space,1.0018,,2966.1377,89,9,2967.1361,2967.1362,2967.1374,,,,0,37,37,37,1,75,155,,,,,,,,
,,6531095c8da8ca2ccf8f8a9f,65af547fac09f8926668b53a,2024-01-23_07h56.38.546,bars,2023.2.3,Win32,29.94011976,657b66ea316d21385b68909f,,,,,,,,,,,2967.1377,2968.1352,,,2968.6354,2968.8852,,81,81,,,,,,,,,,,,,,,,bars/014.png,bars/mask002.png,,,,,,,,,,,,6,1,,,,,,,6,4,6,4,,,,,,,,,,,2968.1353,2968.6353,2968.8853,2969.4035,space,0.5024,,2969.4035,1,81,2970.4006,2970.4007,2970.4036,,,,0,38,38,38,1,80,0,,,,,,,,
,,6531095c8da8ca2ccf8f8a9f,65af547fac09f8926668b53a,2024-01-23_07h56.38.546,bars,2023.2.3,Win32,29.94011976,657b66ea316d21385b68909f,,,,,,,,,,,2970.404,2971.4009,,,2971.9013,2972.1513,,52,52,,,,,,,,,,,,,,,,bars/048.png,bars/mask002.png,,,,,,,,,,,,7,1,,,,,,,8,6,7,6,,,,,,,,,,,2971.4009,2971.9013,2972.1514,2972.8885,space,0.7195,,2972.8885,2,57,2973.8942,2973.8943,2973.8958,,,,0,39,39,39,1,50,175,,,,,,,,
,,6531095c8da8ca2ccf8f8a9f,65af547fac09f8926668b53a,2024-01-23_07h56.38.546,bars,2023.2.3,Win32,29.94011976,657b66ea316d21385b68909f,,,,,,,,,,,2973.8964,2974.8923,,,2975.3921,2975.6421,,120,120,,,,,,,,,,,,,,,,bars/040.png,bars/mask008.png,,,,,,,,,,,,3,1,,,,,,,10,4,9,3,,,,,,,,,,,2974.8924,2975.392,2975.6422,2978.6422,space,2.9842,,2978.6423,20,65,2979.6411,2979.6413,2979.6543,,,,0,40,40,40,1,140,5,,,,,,,,
,,6531095c8da8ca2ccf8f8a9f,65af547fac09f8926668b53a,2024-01-23_07h56.38.546,bars,2023.2.3,Win32,29.94011976,657b66ea316d21385b68909f,,,,,,,,,,,2979.6547,2980.6585,,,2981.1597,2981.4086,,98,98,,,,,,,,,,,,,,,,bars/027.png,bars/mask006.png,,,,,,,,,,,,5,1,,,,,,,8,2,9,0,,,,,,,,,,,2980.6585,2981.1596,2981.4088,2983.9075,space,2.4837,,2983.9076,12,48,2984.9069,2984.907,2984.9205,,,,0,41,41,41,1,110,50,,,,,,,,
,,6531095c8da8ca2ccf8f8a9f,65af547fac09f8926668b53a,2024-01-23_07h56.38.546,bars,2023.2.3,Win32,29.94011976,657b66ea316d21385b68909f,,,,,,,,,,,2984.9208,2985.9248,,,2986.4228,2986.6727,,88,88,,,,,,,,,,,,,,,,bars/025.png,bars/mask009.png,,,,,,,,,,,,4,1,,,,,,,10,0,10,0,,,,,,,,,,,2985.9249,2986.4228,2986.6729,2989.4225,space,2.7333,,2989.4226,17,48,2990.4216,2990.4217,2990.4342,,,,0,42,42,42,1,105,40,,,,,,,,
,,6531095c8da8ca2ccf8f8a9f,65af547fac09f8926668b53a,2024-01-23_07h56.38.546,bars,2023.2.3,Win32,29.94011976,657b66ea316d21385b68909f,,,,,,,,,,,2990.4346,2991.4382,,,2991.9432,2992.1878,,55,55,,,,,,,,,,,,,,,,bars/017.png,bars/mask006.png,,,,,,,,,,,,1,2,,,,,,,8,2,8,2,,,,,,,,,,,2991.4383,2991.9431,2992.1879,2994.9385,space,2.7355,,2994.9386,90,10,2995.9372,2995.9372,2995.9531,,,,0,43,43,43,1,145,45,,,,,,,,
,,6531095c8da8ca2ccf8f8a9f,65af547fac09f8926668b53a,2024-01-23_07h56.38.546,bars,2023.2.3,Win32,29.94011976,657b66ea316d21385b68909f,,,,,,,,,,,2995.9536,2996.9537,,,2997.454,2997.7036,,66,66,,,,,,,,,,,,,,,,bars/029.png,bars/mask000.png,,,,,,,,,,,,0,2,,,,,,,10,0,10,1,,,,,,,,,,,2996.9539,2997.4539,2997.7036,3001.5197,space,3.8023,,3001.5197,24,21,3002.5213,3002.5214,3002.5343,,,,0,44,44,44,1,90,45,,,,,,,,
,,6531095c8da8ca2ccf8f8a9f,65af547fac09f8926668b53a,2024-01-23_07h56.38.546,bars,2023.2.3,Win32,29.94011976,657b66ea316d21385b68909f,,,,,,,,,,,3002.535,3003.5359,,,3004.0355,3004.2856,,106,106,,,,,,,,,,,,,,,,bars/034.png,bars/mask000.png,,,,,,,,,,,,3,1,,,,,,,8,0,8,0,,,,,,,,,,,3003.5359,3004.0355,3004.2857,3006.2854,space,1.9875,,3006.2855,19,41,3007.2845,3007.2846,3007.2875,,,,0,45,45,45,1,125,65,,,,,,,,
,,6531095c8da8ca2ccf8f8a9f,65af547fac09f8926668b53a,2024-01-23_07h56.38.546,bars,2023.2.3,Win32,29.94011976,657b66ea316d21385b68909f,,,,,,,,,,,3007.2878,3008.2845,,,3008.7844,3009.0344,,2,182,,,,,,,,,,,,,,,,bars/012.png,bars/mask001.png,,,,,,,,,,,,2,2,,,,,,,10,2,10,3,,,,,,,,,,,3008.2846,3008.7843,3009.0344,3011.8854,space,2.841,,3011.8854,88,13,3012.8834,3012.8835,3012.8977,,,,0,46,46,46,1,90,15,,,,,,,,
,,6531095c8da8ca2ccf8f8a9f,65af547fac09f8926668b53a,2024-01-23_07h56.38.546,bars,2023.2.3,Win32,29.94011976,657b66ea316d21385b68909f,,,,,,,,,,,3012.8981,3013.8999,,,3014.3999,3014.6499,,114,114,,,,,,,,,,,,,,,,bars/049.png,bars/mask006.png,,,,,,,,,,,,0,2,,,,,,,8,0,8,0,,,,,,,,,,,3013.9,3014.3998,3014.65,3018.5828,space,3.9166,,3018.5829,46,1,3019.5818,3019.582,3019.595,,,,0,47,47,47,1,160,115,,,,,,,,
,,6531095c8da8ca2ccf8f8a9f,65af547fac09f8926668b53a,2024-01-23_07h56.38.546,bars,2023.2.3,Win32,29.94011976,657b66ea316d21385b68909f,,,,,,,,,,,3019.5954,3020.6001,,,3021.0983,3021.3482,,104,104,,,,,,,,,,,,,,,,bars/045.png,bars/mask001.png,,,,,,,,,,,,4,1,,,,,,,6,2,5,5,,,,,,,,,,,3020.6002,3021.0983,3021.3484,3024.4148,space,3.0522,,3024.415,4,86,3025.4138,3025.4138,3025.4306,,,,0,48,48,48,1,100,10,,,,,,,,
,,6531095c8da8ca2ccf8f8a9f,65af547fac09f8926668b53a,2024-01-23_07h56.38.546,bars,2023.2.3,Win32,29.94011976,657b66ea316d21385b68909f,,,,,,,,,,,3025.4311,3026.43,,,3026.9312,3027.1725,,40,40,,,,,,,,,,,,,,,,bars/047.png,bars/mask006.png,,,,,,,,,,,,1,1,,,,,,,8,4,8,4,,,,,,,,,,,3026.43,3026.9312,3027.1725,3029.7884,space,2.6004,,3029.7885,25,30,3030.789,3030.7891,3030.8246,,,,0,49,49,49,1,15,70,,,,,,,,
,,6531095c8da8ca2ccf8f8a9f,65af547fac09f8926668b53a,2024-01-23_07h56.38.546,bars,2023.2.3,Win32,29.94011976,657b66ea316d21385b68909f,,,,,,,,,,,,,,,,,,,,,,,,,,,,,,,,,,,,,,,,,,,,,,,,,,,,,,,,,,,,,,,,,,,,,,,,,,,,,,,,,,,,,,,,,,,,,3030.825,3090.8243,0,2,2,1,1,sequence_tables/blk004.csv
,,6531095c8da8ca2ccf8f8a9f,65af547fac09f8926668b53a,2024-01-23_07h56.38.546,bars,2023.2.3,Win32,29.94011976,657b66ea316d21385b68909f,,,,,,,,,,,3167.7615,3168.7144,,,3169.2153,3169.4641,,17,197,,,,,,,,,,,,,,,,bars/048.png,bars/mask003.png,,,,,,,,,,,,2,2,,,,,,,8,7,10,8,,,,,,3090.8385,3167.708,space,76.8609,,3168.7145,3169.2152,3169.4641,3174.8146,space,5.3352,,3174.8147,33,22,3175.8124,3175.8125,3175.829,,,,0,0,0,0,1,50,175,,,,,,,,
,,6531095c8da8ca2ccf8f8a9f,65af547fac09f8926668b53a,2024-01-23_07h56.38.546,bars,2023.2.3,Win32,29.94011976,657b66ea316d21385b68909f,,,,,,,,,,,3175.866,3176.8381,,,3177.3299,3177.5801,,79,79,,,,,,,,,,,,,,,,bars/038.png,bars/mask006.png,,,,,,,,,,,,3,2,,,,,,,6,5,6,4,,,,,,,,,,,3176.8382,3177.3297,3177.5802,3181.5455,space,3.9493,,3181.5455,86,9,3182.5456,3182.5457,3182.5584,,,,0,1,1,1,1,165,70,,,,,,,,
,,6531095c8da8ca2ccf8f8a9f,65af547fac09f8926668b53a,2024-01-23_07h56.38.546,bars,2023.2.3,Win32,29.94011976,657b66ea316d21385b68909f,,,,,,,,,,,3182.5588,3183.5611,,,3184.0606,3184.311,,52,52,,,,,,,,,,,,,,,,bars/000.png,bars/mask008.png,,,,,,,,,,,,5,1,,,,,,,8,7,8,9,,,,,,,,,,,3183.5612,3184.0605,3184.311,3186.9438,space,2.6172,,3186.9439,12,87,3187.9433,3187.9433,3187.9581,,,,0,2,2,2,1,40,145,,,,,,,,
,,6531095c8da8ca2ccf8f8a9f,65af547fac09f8926668b53a,2024-01-23_07h56.38.546,bars,2023.2.3,Win32,29.94011976,657b66ea316d21385b68909f,,,,,,,,,,,3187.9589,3188.9597,,,3189.4599,3189.7095,,153,153,,,,,,,,,,,,,,,,bars/004.png,bars/mask005.png,,,,,,,,,,,,0,2,,,,,,,10,5,9,4,,,,,,,,,,,3188.9597,3189.4598,3189.7096,3190.8435,space,1.1229,,3190.8436,52,28,3191.842,3191.8422,3191.8569,,,,0,3,3,3,1,25,125,,,,,,,,
,,6531095c8da8ca2ccf8f8a9f,65af547fac09f8926668b53a,2024-01-23_07h56.38.546,bars,2023.2.3,Win32,29.94011976,657b66ea316d21385b68909f,,,,,,,,,,,3191.8573,3192.8583,,,3193.3584,3193.6082,,84,84,,,,,,,,,,,,,,,,bars/020.png,bars/mask008.png,,,,,,,,,,,,0,1,,,,,,,10,7,10,8,,,,,,,,,,,3192.8584,3193.3583,3193.6083,3196.5418,space,2.9169,,3196.5419,31,86,3197.5411,3197.5411,3197.5575,,,,0,4,4,4,1,115,170,,,,,,,,
,,6531095c8da8ca2ccf8f8a9f,65af547fac09f8926668b53a,2024-01-23_07h56.38.546,bars,2023.2.3,Win32,29.94011976,657b66ea316d21385b68909f,,,,,,,,,,,3197.5579,3198.5577,,,3199.0573,3199.3072,,14,194,,,,,,,,,,,,,,,,bars/016.png,bars/mask005.png,,,,,,,,,,,,1,1,,,,,,,10,5,10,6,,,,,,,,,,,3198.5577,3199.0573,3199.3073,3203.3233,space,3.9999,,3203.3233,26,29,3204.3221,3204.3223,3204.3368,,,,0,5,5,5,1,40,165,,,,,,,,
,,6531095c8da8ca2ccf8f8a9f,65af547fac09f8926668b53a,2024-01-23_07h56.38.546,bars,2023.2.3,Win32,29.94011976,657b66ea316d21385b68909f,,,,,,,,,,,3204.3372,3205.3392,,,3205.8393,3206.089,,126,126,,,,,,,,,,,,,,,,bars/003.png,bars/mask002.png,,,,,,,,,,,,4,2,,,,,,,10,7,10,7,,,,,,,,,,,3205.3392,3205.8391,3206.0892,3209.0558,space,2.9501,,3209.0558,79,14,3210.0557,3210.0558,3210.0717,,,,0,6,6,6,1,25,140,,,,,,,,
,,6531095c8da8ca2ccf8f8a9f,65af547fac09f8926668b53a,2024-01-23_07h56.38.546,bars,2023.2.3,Win32,29.94011976,657b66ea316d21385b68909f,,,,,,,,,,,3210.0721,3211.071,,,3211.5711,3211.821,,85,85,,,,,,,,,,,,,,,,bars/011.png,bars/mask005.png,,,,,,,,,,,,7,2,,,,,,,10,5,9,7,,,,,,,,,,,3211.0711,3211.5711,3211.821,3217.0224,space,5.1913,,3217.0224,75,0,3218.0194,3218.0194,3218.0337,,,,0,7,7,7,1,160,85,,,,,,,,
,,6531095c8da8ca2ccf8f8a9f,65af547fac09f8926668b53a,2024-01-23_07h56.38.546,bars,2023.2.3,Win32,29.94011976,657b66ea316d21385b68909f,,,,,,,,,,,3218.034,3219.0357,,,3219.5363,3219.786,,162,-18,,,,,,,,,,,,,,,,bars/023.png,bars/mask009.png,,,,,,,,,,,,0,1,,,,,,,8,3,9,3,,,,,,,,,,,3219.0357,3219.5362,3219.786,3225.4208,space,5.6254,,3225.4209,38,47,3226.4175,3226.4177,3226.4355,,,,0,8,8,8,1,20,115,,,,,,,,
,,6531095c8da8ca2ccf8f8a9f,65af547fac09f8926668b53a,2024-01-23_07h56.38.546,bars,2023.2.3,Win32,29.94011976,657b66ea316d21385b68909f,,,,,,,,,,,3226.436,3227.4341,,,3227.934,3228.184,,115,115,,,,,,,,,,,,,,,,bars/022.png,bars/mask000.png,,,,,,,,,,,,2,1,,,,,,,6,1,7,0,,,,,,,,,,,3227.4343,3227.934,3228.184,3229.7006,space,1.5001,,3229.7006,20,85,3230.6999,3230.7,3230.7014,,,,0,9,9,9,1,95,20,,,,,,,,
,,6531095c8da8ca2ccf8f8a9f,65af547fac09f8926668b53a,2024-01-23_07h56.38.546,bars,2023.2.3,Win32,29.94011976,657b66ea316d21385b68909f,,,,,,,,,,,3230.7018,3231.6994,,,3232.1999,3232.4499,,90,90,,,,,,,,,,,,,,,,bars/006.png,bars/mask002.png,,,,,,,,,,,,3,2,,,,,,,4,3,5,4,,,,,,,,,,,3231.6995,3232.1997,3232.45,3235.3501,space,2.886,,3235.3502,55,10,3236.3485,3236.3487,3236.365,,,,0,10,10,10,1,35,100,,,,,,,,
,,6531095c8da8ca2ccf8f8a9f,65af547fac09f8926668b53a,2024-01-23_07h56.38.546,bars,2023.2.3,Win32,29.94011976,657b66ea316d21385b68909f,,,,,,,,,,,3236.3654,3237.3655,,,3237.8653,3238.1148,,143,143,,,,,,,,,,,,,,,,bars/031.png,bars/mask001.png,,,,,,,,,,,,1,1,,,,,,,6,1,5,0,,,,,,,,,,,3237.3655,3237.8653,3238.1148,3238.8498,space,0.7184,,3238.8498,23,72,3239.8478,3239.8479,3239.8509,,,,0,11,11,11,1,120,35,,,,,,,,
,,6531095c8da8ca2ccf8f8a9f,65af547fac09f8926668b53a,2024-01-23_07h56.38.546,bars,2023.2.3,Win32,29.94011976,657b66ea316d21385b68909f,,,,,,,,,,,3239.8514,3240.8474,,,3241.348,3241.5976,,84,84,,,,,,,,,,,,,,,,bars/006.png,bars/mask000.png,,,,,,,,,,,,0,2,,,,,,,8,0,9,1,,,,,,,,,,,3240.8474,3241.348,3241.5976,3242.3646,space,0.7505,,3242.3647,49,16,3243.3637,3243.3638,3243.367,,,,0,12,12,12,1,35,100,,,,,,,,
,,6531095c8da8ca2ccf8f8a9f,65af547fac09f8926668b53a,2024-01-23_07h56.38.546,bars,2023.2.3,Win32,29.94011976,657b66ea316d21385b68909f,,,,,,,,,,,3243.3673,3244.3631,,,3244.8633,3245.1132,,89,89,,,,,,,,,,,,,,,,bars/002.png,bars/mask002.png,,,,,,,,,,,,0,2,,,,,,,10,0,8,0,,,,,,,,,,,3244.3633,3244.8632,3245.1133,3247.8132,space,2.6842,,3247.8133,41,4,3248.8126,3248.8126,3248.8259,,,,0,13,13,13,1,130,85,,,,,,,,
,,6531095c8da8ca2ccf8f8a9f,65af547fac09f8926668b53a,2024-01-23_07h56.38.546,bars,2023.2.3,Win32,29.94011976,657b66ea316d21385b68909f,,,,,,,,,,,3248.8262,3249.8288,,,3250.3293,3250.5788,,178,178,,,,,,,,,,,,,,,,bars/006.png,bars/mask000.png,,,,,,,,,,,,0,1,,,,,,,8,0,9,0,,,,,,,,,,,3249.8288,3250.3293,3250.5789,3255.2618,space,4.6711,,3255.2618,37,78,3256.2604,3256.2605,3256.2773,,,,0,14,14,14,1,35,100,,,,,,,,
,,6531095c8da8ca2ccf8f8a9f,65af547fac09f8926668b53a,2024-01-23_07h56.38.546,bars,2023.2.3,Win32,29.94011976,657b66ea316d21385b68909f,,,,,,,,,,,3256.2777,3257.2692,,,3257.7611,3258.0108,,15,195,,,,,,,,,,,,,,,,bars/032.png,bars/mask006.png,,,,,,,,,,,,1,2,,,,,,,6,0,5,1,,,,,,,,,,,3257.2692,3257.761,3258.0108,3261.0949,space,3.0746,,3261.095,70,5,3262.0923,3262.0924,3262.1074,,,,0,15,15,15,1,125,20,,,,,,,,
,,6531095c8da8ca2ccf8f8a9f,65af547fac09f8926668b53a,2024-01-23_07h56.38.546,bars,2023.2.3,Win32,29.94011976,657b66ea316d21385b68909f,,,,,,,,,,,3262.1086,3263.1093,,,3263.609,3263.852,,81,81,,,,,,,,,,,,,,,,bars/026.png,bars/mask005.png,,,,,,,,,,,,2,2,,,,,,,4,2,3,2,,,,,,,,,,,3263.1094,3263.6089,3263.852,3270.0266,space,6.1688,,3270.0266,46,4,3271.0243,3271.0243,3271.0385,,,,0,16,16,16,1,35,85,,,,,,,,
,,6531095c8da8ca2ccf8f8a9f,65af547fac09f8926668b53a,2024-01-23_07h56.38.546,bars,2023.2.3,Win32,29.94011976,657b66ea316d21385b68909f,,,,,,,,,,,3271.039,3272.0401,,,3272.5404,3272.7902,,89,-91,,,,,,,,,,,,,,,,bars/037.png,bars/mask005.png,,,,,,,,,,,,0,2,,,,,,,2,0,4,1,,,,,,,,,,,3272.0402,3272.5404,3272.7903,3277.7061,space,4.9007,,3277.7061,61,16,3278.706,3278.706,3278.7195,,,,0,17,17,17,1,150,105,,,,,,,,
,,6531095c8da8ca2ccf8f8a9f,65af547fac09f8926668b53a,2024-01-23_07h56.38.546,bars,2023.2.3,Win32,29.94011976,657b66ea316d21385b68909f,,,,,,,,,,,3278.7198,3279.7226,,,3280.2226,3280.4721,,119,119,,,,,,,,,,,,,,,,bars/004.png,bars/mask004.png,,,,,,,,,,,,1,2,,,,,,,0,0,1,1,,,,,,,,,,,3279.7227,3280.2225,3280.4722,3284.3389,space,3.8534,,3284.339,86,6,3285.3274,3285.3276,3285.3426,,,,0,18,18,18,1,25,125,,,,,,,,
,,6531095c8da8ca2ccf8f8a9f,65af547fac09f8926668b53a,2024-01-23_07h56.38.546,bars,2023.2.3,Win32,29.94011976,657b66ea316d21385b68909f,,,,,,,,,,,3285.343,3286.3371,,,3286.8395,3287.0866,,157,157,,,,,,,,,,,,,,,,bars/017.png,bars/mask008.png,,,,,,,,,,,,2,1,,,,,,,2,0,3,0,,,,,,,,,,,3286.3371,3286.8392,3287.0868,3290.6211,space,3.5187,,3290.6213,12,68,3291.6191,3291.6192,3291.6337,,,,0,19,19,19,1,145,45,,,,,,,,
,,6531095c8da8ca2ccf8f8a9f,65af547fac09f8926668b53a,2024-01-23_07h56.38.546,bars,2023.2.3,Win32,29.94011976,657b66ea316d21385b68909f,,,,,,,,,,,3291.6341,3292.6357,,,3293.136,3293.3855,,53,-127,,,,,,,,,,,,,,,,bars/000.png,bars/mask003.png,,,,,,,,,,,,1,1,,,,,,,4,2,2,1,,,,,,,,,,,3292.6358,3293.1359,3293.3856,3299.7016,space,6.2997,,3299.7018,13,88,3300.7022,3300.7023,3300.7169,,,,0,20,20,20,1,40,145,,,,,,,,
,,6531095c8da8ca2ccf8f8a9f,65af547fac09f8926668b53a,2024-01-23_07h56.38.546,bars,2023.2.3,Win32,29.94011976,657b66ea316d21385b68909f,,,,,,,,,,,3300.7174,3301.7171,,,3302.2169,3302.467,,8,188,,,,,,,,,,,,,,,,bars/049.png,bars/mask004.png,,,,,,,,,,,,0,1,,,,,,,2,4,4,4,,,,,,,,,,,3301.7173,3302.2169,3302.467,3307.5328,space,5.0499,,3307.5329,28,73,3308.5318,3308.5319,3308.5448,,,,0,21,21,21,1,160,115,,,,,,,,
,,6531095c8da8ca2ccf8f8a9f,65af547fac09f8926668b53a,2024-01-23_07h56.38.546,bars,2023.2.3,Win32,29.94011976,657b66ea316d21385b68909f,,,,,,,,,,,3308.545,3309.5483,,,3310.0489,3310.2986,,117,117,,,,,,,,,,,,,,,,bars/008.png,bars/mask008.png,,,,,,,,,,,,0,1,,,,,,,0,2,0,2,,,,,,,,,,,3309.5483,3310.0489,3310.2987,3312.9821,space,2.6667,,3312.9823,7,63,3313.9811,3313.9811,3313.9825,,,,0,22,22,22,1,110,0,,,,,,,,
,,6531095c8da8ca2ccf8f8a9f,65af547fac09f8926668b53a,2024-01-23_07h56.38.546,bars,2023.2.3,Win32,29.94011976,657b66ea316d21385b68909f,,,,,,,,,,,3313.983,3314.9806,,,3315.4866,3315.7301,,114,114,,,,,,,,,,,,,,,,bars/045.png,bars/mask009.png,,,,,,,,,,,,2,1,,,,,,,2,0,3,0,,,,,,,,,,,3314.9806,3315.4865,3315.7302,3319.6133,space,3.8681,,3319.6134,14,76,3320.6134,3320.6136,3320.6265,,,,0,23,23,23,1,100,10,,,,,,,,
,,6531095c8da8ca2ccf8f8a9f,65af547fac09f8926668b53a,2024-01-23_07h56.38.546,bars,2023.2.3,Win32,29.94011976,657b66ea316d21385b68909f,,,,,,,,,,,3320.6269,3321.6314,,,3322.129,3322.379,,74,74,,,,,,,,,,,,,,,,bars/028.png,bars/mask007.png,,,,,,,,,,,,0,1,,,,,,,0,2,0,3,,,,,,,,,,,3321.6314,3322.129,3322.379,3323.1812,space,0.7925,,3323.1812,29,46,3324.1783,3324.1783,3324.1796,,,,0,24,24,24,1,45,120,,,,,,,,
,,6531095c8da8ca2ccf8f8a9f,65af547fac09f8926668b53a,2024-01-23_07h56.38.546,bars,2023.2.3,Win32,29.94011976,657b66ea316d21385b68909f,,,,,,,,,,,3324.18,3325.178,,,3325.6795,3325.9283,,86,86,,,,,,,,,,,,,,,,bars/034.png,bars/mask008.png,,,,,,,,,,,,1,2,,,,,,,0,4,0,4,,,,,,,,,,,3325.1781,3325.6795,3325.9284,3326.5979,space,0.66,,3326.5979,39,21,3327.5872,3327.5872,3327.5899,,,,0,25,25,25,1,125,65,,,,,,,,
,,6531095c8da8ca2ccf8f8a9f,65af547fac09f8926668b53a,2024-01-23_07h56.38.546,bars,2023.2.3,Win32,29.94011976,657b66ea316d21385b68909f,,,,,,,,,,,3327.5906,3328.5943,,,3329.0943,3329.344,,72,72,,,,,,,,,,,,,,,,bars/027.png,bars/mask002.png,,,,,,,,,,,,0,2,,,,,,,2,2,4,1,,,,,,,,,,,3328.5943,3329.0941,3329.344,3331.4105,space,2.0506,,3331.4106,38,22,3332.4102,3332.4102,3332.4237,,,,0,26,26,26,1,110,50,,,,,,,,
,,6531095c8da8ca2ccf8f8a9f,65af547fac09f8926668b53a,2024-01-23_07h56.38.546,bars,2023.2.3,Win32,29.94011976,657b66ea316d21385b68909f,,,,,,,,,,,3332.424,3333.4264,,,3333.9263,3334.1758,,25,205,,,,,,,,,,,,,,,,bars/032.png,bars/mask008.png,,,,,,,,,,,,3,2,,,,,,,0,4,0,4,,,,,,,,,,,3333.4264,3333.9263,3334.1758,3337.9592,space,3.7669,,3337.9593,80,5,3338.9581,3338.9582,3338.9933,,,,0,27,27,27,1,125,20,,,,,,,,
,,6531095c8da8ca2ccf8f8a9f,65af547fac09f8926668b53a,2024-01-23_07h56.38.546,bars,2023.2.3,Win32,29.94011976,657b66ea316d21385b68909f,,,,,,,,,,,3338.9938,3339.9916,,,3340.4915,3340.7414,,129,129,,,,,,,,,,,,,,,,bars/034.png,bars/mask001.png,,,,,,,,,,,,0,1,,,,,,,0,6,0,4,,,,,,,,,,,3339.9918,3340.4913,3340.7414,3341.992,space,1.2338,,3341.9922,4,64,3342.9906,3342.9908,3342.9937,,,,0,28,28,28,1,125,65,,,,,,,,
,,6531095c8da8ca2ccf8f8a9f,65af547fac09f8926668b53a,2024-01-23_07h56.38.546,bars,2023.2.3,Win32,29.94011976,657b66ea316d21385b68909f,,,,,,,,,,,3342.9941,3343.9908,,,3344.4909,3344.7401,,30,210,,,,,,,,,,,,,,,,bars/032.png,bars/mask001.png,,,,,,,,,,,,5,2,,,,,,,2,8,2,8,,,,,,,,,,,3343.9908,3344.4909,3344.7402,3349.1901,space,4.4341,,3349.1901,85,10,3350.1892,3350.1893,3350.2037,,,,0,29,29,29,1,125,20,,,,,,,,
,,6531095c8da8ca2ccf8f8a9f,65af547fac09f8926668b53a,2024-01-23_07h56.38.546,bars,2023.2.3,Win32,29.94011976,657b66ea316d21385b68909f,,,,,,,,,,,3350.2041,3351.2056,,,3351.7055,3351.9555,,128,128,,,,,,,,,,,,,,,,bars/011.png,bars/mask004.png,,,,,,,,,,,,0,1,,,,,,,4,10,5,9,,,,,,,,,,,3351.2057,3351.7054,3351.9556,3354.7722,space,2.8005,,3354.7722,32,43,3355.7714,3355.7715,3355.7884,,,,0,30,30,30,1,160,85,,,,,,,,
,,6531095c8da8ca2ccf8f8a9f,65af547fac09f8926668b53a,2024-01-23_07h56.38.546,bars,2023.2.3,Win32,29.94011976,657b66ea316d21385b68909f,,,,,,,,,,,3355.7888,3356.7961,,,3357.2962,3357.5459,,34,34,,,,,,,,,,,,,,,,bars/038.png,bars/mask000.png,,,,,,,,,,,,0,2,,,,,,,2,10,3,10,,,,,,,,,,,3356.7962,3357.2961,3357.5459,3358.5635,space,1.0015,,3358.5635,49,36,3359.5622,3359.5622,3359.5649,,,,0,31,31,31,1,165,70,,,,,,,,
,,6531095c8da8ca2ccf8f8a9f,65af547fac09f8926668b53a,2024-01-23_07h56.38.546,bars,2023.2.3,Win32,29.94011976,657b66ea316d21385b68909f,,,,,,,,,,,3359.5653,3360.5535,,,3361.0532,3361.3033,,114,114,,,,,,,,,,,,,,,,bars/020.png,bars/mask000.png,,,,,,,,,,,,4,1,,,,,,,4,8,4,7,,,,,,,,,,,3360.5535,3361.0531,3361.3033,3364.2195,space,2.9036,,3364.2196,1,56,3365.2188,3365.2188,3365.2331,,,,0,32,32,32,1,115,170,,,,,,,,
,,6531095c8da8ca2ccf8f8a9f,65af547fac09f8926668b53a,2024-01-23_07h56.38.546,bars,2023.2.3,Win32,29.94011976,657b66ea316d21385b68909f,,,,,,,,,,,3365.2335,3366.2353,,,3366.7354,3366.9856,,111,111,,,,,,,,,,,,,,,,bars/019.png,bars/mask005.png,,,,,,,,,,,,5,2,,,,,,,2,6,2,6,,,,,,,,,,,3366.2354,3366.7354,3366.9857,3370.1683,space,3.1711,,3370.1684,66,6,3371.1676,3371.1676,3371.1822,,,,0,33,33,33,1,45,105,,,,,,,,
,,6531095c8da8ca2ccf8f8a9f,65af547fac09f8926668b53a,2024-01-23_07h56.38.546,bars,2023.2.3,Win32,29.94011976,657b66ea316d21385b68909f,,,,,,,,,,,3371.1826,3372.1855,,,3372.684,3372.934,,133,133,,,,,,,,,,,,,,,,bars/037.png,bars/mask005.png,,,,,,,,,,,,0,1,,,,,,,0,4,0,1,,,,,,,,,,,3372.1856,3372.684,3372.9341,3375.6339,space,2.6886,,3375.634,17,28,3376.6333,3376.6333,3376.6476,,,,0,34,34,34,1,150,105,,,,,,,,
,,6531095c8da8ca2ccf8f8a9f,65af547fac09f8926668b53a,2024-01-23_07h56.38.546,bars,2023.2.3,Win32,29.94011976,657b66ea316d21385b68909f,,,,,,,,,,,3376.6481,3377.6495,,,3378.1496,3378.3996,,55,55,,,,,,,,,,,,,,,,bars/028.png,bars/mask004.png,,,,,,,,,,,,1,1,,,,,,,2,2,2,2,,,,,,,,,,,3377.6495,3378.1496,3378.3996,3379.3499,space,0.9341,,3379.35,10,65,3380.3488,3380.3488,3380.3616,,,,0,35,35,35,1,45,120,,,,,,,,
,,6531095c8da8ca2ccf8f8a9f,65af547fac09f8926668b53a,2024-01-23_07h56.38.546,bars,2023.2.3,Win32,29.94011976,657b66ea316d21385b68909f,,,,,,,,,,,3380.3619,3381.3494,,,3381.8494,3382.099,,62,62,,,,,,,,,,,,,,,,bars/046.png,bars/mask002.png,,,,,,,,,,,,0,2,,,,,,,0,0,0,1,,,,,,,,,,,3381.3494,3381.8493,3382.099,3386.1149,space,3.9997,,3386.115,87,23,3387.1151,3387.1151,3387.1309,,,,0,36,36,36,1,155,85,,,,,,,,
,,6531095c8da8ca2ccf8f8a9f,65af547fac09f8926668b53a,2024-01-23_07h56.38.546,bars,2023.2.3,Win32,29.94011976,657b66ea316d21385b68909f,,,,,,,,,,,3387.1314,3388.131,,,3388.6312,3388.8812,,44,44,,,,,,,,,,,,,,,,bars/035.png,bars/mask006.png,,,,,,,,,,,,0,2,,,,,,,2,2,2,1,,,,,,,,,,,3388.131,3388.6312,3388.8813,3389.564,space,0.6671,,3389.5641,49,16,3390.5636,3390.5636,3390.5645,,,,0,37,37,37,1,175,60,,,,,,,,
,,6531095c8da8ca2ccf8f8a9f,65af547fac09f8926668b53a,2024-01-23_07h56.38.546,bars,2023.2.3,Win32,29.94011976,657b66ea316d21385b68909f,,,,,,,,,,,3390.5648,3391.5637,,,3392.0634,3392.3135,,15,15,,,,,,,,,,,,,,,,bars/036.png,bars/mask000.png,,,,,,,,,,,,0,2,,,,,,,4,0,3,0,,,,,,,,,,,3391.5637,3392.0633,3392.3136,3397.4626,space,5.1324,,3397.4627,50,5,3398.4619,3398.4619,3398.4755,,,,0,38,38,38,1,145,20,,,,,,,,
,,6531095c8da8ca2ccf8f8a9f,65af547fac09f8926668b53a,2024-01-23_07h56.38.546,bars,2023.2.3,Win32,29.94011976,657b66ea316d21385b68909f,,,,,,,,,,,3398.4759,3399.4782,,,3399.9782,3400.2284,,51,51,,,,,,,,,,,,,,,,bars/031.png,bars/mask008.png,,,,,,,,,,,,0,2,,,,,,,2,2,3,1,,,,,,,,,,,3399.4783,3399.978,3400.2284,3403.111,space,2.8719,,3403.111,69,16,3404.1105,3404.1105,3404.1231,,,,0,39,39,39,1,120,35,,,,,,,,
,,6531095c8da8ca2ccf8f8a9f,65af547fac09f8926668b53a,2024-01-23_07h56.38.546,bars,2023.2.3,Win32,29.94011976,657b66ea316d21385b68909f,,,,,,,,,,,3404.1235,3405.127,,,3405.6269,3405.8771,,90,90,,,,,,,,,,,,,,,,bars/006.png,bars/mask007.png,,,,,,,,,,,,0,2,,,,,,,0,0,0,0,,,,,,,,,,,3405.127,3405.6268,3405.8771,3408.4433,space,2.5558,,3408.4434,55,10,3409.4437,3409.4439,3409.4564,,,,0,40,40,40,1,35,100,,,,,,,,
,,6531095c8da8ca2ccf8f8a9f,65af547fac09f8926668b53a,2024-01-23_07h56.38.546,bars,2023.2.3,Win32,29.94011976,657b66ea316d21385b68909f,,,,,,,,,,,3409.4569,3410.4589,,,3410.9593,3411.2093,,118,118,,,,,,,,,,,,,,,,bars/008.png,bars/mask000.png,,,,,,,,,,,,1,1,,,,,,,2,0,2,0,,,,,,,,,,,3410.459,3410.9593,3411.2093,3412.0925,space,0.8671,,3412.0926,8,62,3413.0921,3413.0922,3413.0945,,,,0,41,41,41,1,110,0,,,,,,,,
,,6531095c8da8ca2ccf8f8a9f,65af547fac09f8926668b53a,2024-01-23_07h56.38.546,bars,2023.2.3,Win32,29.94011976,657b66ea316d21385b68909f,,,,,,,,,,,3413.0949,3414.0916,,,3414.5918,3414.8419,,38,38,,,,,,,,,,,,,,,,bars/005.png,bars/mask003.png,,,,,,,,,,,,0,1,,,,,,,0,2,1,0,,,,,,,,,,,3414.0917,3414.5917,3414.8419,3417.4747,space,2.6172,,3417.4747,28,78,3418.4738,3418.4738,3418.4863,,,,0,42,42,42,1,10,140,,,,,,,,
,,6531095c8da8ca2ccf8f8a9f,65af547fac09f8926668b53a,2024-01-23_07h56.38.546,bars,2023.2.3,Win32,29.94011976,657b66ea316d21385b68909f,,,,,,,,,,,3418.4866,3419.4904,,,3419.9896,3420.2393,,134,134,,,,,,,,,,,,,,,,bars/018.png,bars/mask008.png,,,,,,,,,,,,0,1,,,,,,,0,0,0,0,,,,,,,,,,,3419.4904,3419.9895,3420.2394,3421.1901,space,0.9401,,3421.1901,16,44,3422.189,3422.1891,3422.1905,,,,0,43,43,43,1,150,90,,,,,,,,
,,6531095c8da8ca2ccf8f8a9f,65af547fac09f8926668b53a,2024-01-23_07h56.38.546,bars,2023.2.3,Win32,29.94011976,657b66ea316d21385b68909f,,,,,,,,,,,3422.1909,3423.1888,,,3423.6888,3423.9392,,106,106,,,,,,,,,,,,,,,,bars/026.png,bars/mask006.png,,,,,,,,,,,,0,2,,,,,,,2,0,0,1,,,,,,,,,,,3423.1889,3423.6887,3423.9392,3424.5228,space,0.5674,,3424.5229,71,21,3425.5223,3425.5224,3425.5258,,,,0,44,44,44,1,35,85,,,,,,,,
,,6531095c8da8ca2ccf8f8a9f,65af547fac09f8926668b53a,2024-01-23_07h56.38.546,bars,2023.2.3,Win32,29.94011976,657b66ea316d21385b68909f,,,,,,,,,,,3425.5261,3426.5217,,,3427.0214,3427.2713,,108,108,,,,,,,,,,,,,,,,bars/025.png,bars/mask003.png,,,,,,,,,,,,1,1,,,,,,,0,2,1,2,,,,,,,,,,,3426.5217,3427.0213,3427.2714,3429.3889,space,2.1006,,3429.3889,3,68,3430.3871,3430.3871,3430.4018,,,,0,45,45,45,1,105,40,,,,,,,,
,,6531095c8da8ca2ccf8f8a9f,65af547fac09f8926668b53a,2024-01-23_07h56.38.546,bars,2023.2.3,Win32,29.94011976,657b66ea316d21385b68909f,,,,,,,,,,,3430.4021,3431.404,,,3431.9038,3432.1536,,4,184,,,,,,,,,,,,,,,,bars/022.png,bars/mask003.png,,,,,,,,,,,,2,2,,,,,,,0,4,1,5,,,,,,,,,,,3431.404,3431.9037,3432.1537,3434.0707,space,1.9012,,3434.0709,89,16,3435.07,3435.07,3435.0846,,,,0,46,46,46,1,95,20,,,,,,,,
,,6531095c8da8ca2ccf8f8a9f,65af547fac09f8926668b53a,2024-01-23_07h56.38.546,bars,2023.2.3,Win32,29.94011976,657b66ea316d21385b68909f,,,,,,,,,,,3435.0854,3436.0865,,,3436.5857,3436.8359,,44,44,,,,,,,,,,,,,,,,bars/017.png,bars/mask001.png,,,,,,,,,,,,2,2,,,,,,,0,2,0,2,,,,,,,,,,,3436.0866,3436.5857,3436.8359,3440.0454,space,3.1999,,3440.0454,79,1,3441.0435,3441.0437,3441.0579,,,,0,47,47,47,1,145,45,,,,,,,,
,,6531095c8da8ca2ccf8f8a9f,65af547fac09f8926668b53a,2024-01-23_07h56.38.546,bars,2023.2.3,Win32,29.94011976,657b66ea316d21385b68909f,,,,,,,,,,,3441.0582,3442.0595,,,3442.5604,3442.8089,,107,107,,,,,,,,,,,,,,,,bars/044.png,bars/mask009.png,,,,,,,,,,,,0,1,,,,,,,0,0,1,0,,,,,,,,,,,3442.0596,3442.5603,3442.8091,3443.7777,space,0.9516,,3443.7777,32,48,3444.7768,3444.7769,3444.7794,,,,0,48,48,48,1,75,155,,,,,,,,
,,6531095c8da8ca2ccf8f8a9f,65af547fac09f8926668b53a,2024-01-23_07h56.38.546,bars,2023.2.3,Win32,29.94011976,657b66ea316d21385b68909f,,,,,,,,,,,3444.7798,3445.7761,,,3446.2768,3446.5265,,21,21,,,,,,,,,,,,,,,,bars/032.png,bars/mask001.png,,,,,,,,,,,,1,2,,,,,,,2,2,4,1,,,,,,,,,,,3445.7761,3446.2767,3446.5266,3447.3807,space,0.8387,,3447.3808,76,1,3448.3836,3448.3836,3448.3999,,,,0,49,49,49,1,125,20,,,,,,,,
,,6531095c8da8ca2ccf8f8a9f,65af547fac09f8926668b53a,2024-01-23_07h56.38.546,bars,2023.2.3,Win32,29.94011976,657b66ea316d21385b68909f,,,,,,,,,,,,,,,,,,,,,,,,,,,,,,,,,,,,,,,,,,,,,,,,,,,,,,,,,,,,,,,,,,,,,,,,,,,,,,,,,,,,,,,,,,,,,3448.4002,3508.403,0,3,3,2,1,sequence_tables/blk044.csv
,,6531095c8da8ca2ccf8f8a9f,65af547fac09f8926668b53a,2024-01-23_07h56.38.546,bars,2023.2.3,Win32,29.94011976,657b66ea316d21385b68909f,,,,,,,,,,,3636.4606,3637.4149,,,3637.9136,3638.1651,,103,103,,,,,,,,,,,,,,,,bars/042.png,bars/mask000.png,,,,,,,,,,,,0,2,,,,,,,5,5,5,2,,,,,,3508.4175,3636.4071,space,127.9759,,3637.4149,3637.9135,3638.1652,3642.073,space,3.8916,,3642.0731,42,28,3643.0721,3643.0722,3643.0852,,,,0,0,0,0,1,145,75,,,,,,,,
,,6531095c8da8ca2ccf8f8a9f,65af547fac09f8926668b53a,2024-01-23_07h56.38.546,bars,2023.2.3,Win32,29.94011976,657b66ea316d21385b68909f,,,,,,,,,,,3643.0856,3644.0881,,,3644.5884,3644.8379,,127,127,,,,,,,,,,,,,,,,bars/034.png,bars/mask005.png,,,,,,,,,,,,7,1,,,,,,,7,3,8,4,,,,,,,,,,,3644.0881,3644.5884,3644.8379,3649.9041,space,5.0539,,3649.9042,2,62,3650.9033,3650.9033,3650.9179,,,,0,1,1,1,1,125,65,,,,,,,,
,,6531095c8da8ca2ccf8f8a9f,65af547fac09f8926668b53a,2024-01-23_07h56.38.546,bars,2023.2.3,Win32,29.94011976,657b66ea316d21385b68909f,,,,,,,,,,,3650.9182,3651.9199,,,3652.4194,3652.6698,,119,119,,,,,,,,,,,,,,,,bars/031.png,bars/mask006.png,,,,,,,,,,,,4,1,,,,,,,5,5,4,6,,,,,,,,,,,3651.9199,3652.4194,3652.6699,3655.4527,space,2.7674,,3655.4528,1,84,3656.4523,3656.4523,3656.4648,,,,0,2,2,2,1,120,35,,,,,,,,
,,6531095c8da8ca2ccf8f8a9f,65af547fac09f8926668b53a,2024-01-23_07h56.38.546,bars,2023.2.3,Win32,29.94011976,657b66ea316d21385b68909f,,,,,,,,,,,3656.4651,3657.4681,,,3657.9681,3658.2184,,56,56,,,,,,,,,,,,,,,,bars/028.png,bars/mask001.png,,,,,,,,,,,,4,1,,,,,,,7,7,7,7,,,,,,,,,,,3657.4683,3657.9681,3658.2185,3661.3015,space,3.067,,3661.3015,11,64,3662.3007,3662.3007,3662.3135,,,,0,3,3,3,1,45,120,,,,,,,,
,,6531095c8da8ca2ccf8f8a9f,65af547fac09f8926668b53a,2024-01-23_07h56.38.546,bars,2023.2.3,Win32,29.94011976,657b66ea316d21385b68909f,,,,,,,,,,,3662.3139,3663.3171,,,3663.8172,3664.0674,,137,137,,,,,,,,,,,,,,,,bars/007.png,bars/mask004.png,,,,,,,,,,,,0,1,,,,,,,5,5,6,4,,,,,,,,,,,3663.3172,3663.8171,3664.0674,3665.5668,space,1.4887,,3665.5669,38,82,3666.5666,3666.5666,3666.5795,,,,0,4,4,4,1,175,55,,,,,,,,
,,6531095c8da8ca2ccf8f8a9f,65af547fac09f8926668b53a,2024-01-23_07h56.38.546,bars,2023.2.3,Win32,29.94011976,657b66ea316d21385b68909f,,,,,,,,,,,3666.5797,3667.5829,,,3668.0828,3668.3327,,19,19,,,,,,,,,,,,,,,,bars/012.png,bars/mask009.png,,,,,,,,,,,,7,2,,,,,,,7,7,8,8,,,,,,,,,,,3667.5829,3668.0827,3668.3327,3673.6659,space,5.3154,,3673.6661,71,4,3674.6651,3674.6651,3674.6818,,,,0,5,5,5,1,90,15,,,,,,,,
,,6531095c8da8ca2ccf8f8a9f,65af547fac09f8926668b53a,2024-01-23_07h56.38.546,bars,2023.2.3,Win32,29.94011976,657b66ea316d21385b68909f,,,,,,,,,,,3674.6821,3675.6809,,,3676.182,3676.431,,76,76,,,,,,,,,,,,,,,,bars/026.png,bars/mask002.png,,,,,,,,,,,,6,2,,,,,,,9,9,7,9,,,,,,,,,,,3675.6809,3676.1818,3676.431,3678.5479,space,2.1007,,3678.548,41,9,3679.5467,3679.5469,3679.5595,,,,0,6,6,6,1,35,85,,,,,,,,
,,6531095c8da8ca2ccf8f8a9f,65af547fac09f8926668b53a,2024-01-23_07h56.38.546,bars,2023.2.3,Win32,29.94011976,657b66ea316d21385b68909f,,,,,,,,,,,3679.5598,3680.5633,,,3681.065,3681.3043,,91,91,,,,,,,,,,,,,,,,bars/038.png,bars/mask004.png,,,,,,,,,,,,2,2,,,,,,,10,10,10,8,,,,,,,,,,,3680.5633,3681.0649,3681.3044,3682.1633,space,0.8457,,3682.1634,74,21,3683.1627,3683.1627,3683.164,,,,0,7,7,7,1,165,70,,,,,,,,
,,6531095c8da8ca2ccf8f8a9f,65af547fac09f8926668b53a,2024-01-23_07h56.38.546,bars,2023.2.3,Win32,29.94011976,657b66ea316d21385b68909f,,,,,,,,,,,3683.1645,3684.1625,,,3684.6622,3684.912,,127,127,,,,,,,,,,,,,,,,bars/032.png,bars/mask007.png,,,,,,,,,,,,9,1,,,,,,,10,10,10,10,,,,,,,,,,,3684.1626,3684.6622,3684.9122,3687.512,space,2.585,,3687.5121,2,73,3688.5115,3688.5116,3688.5152,,,,0,8,8,8,1,125,20,,,,,,,,
