init_variables.started,init_variables.stopped,participant,session,date,expName,psychopyVersion,OS,frameRate,study_id,instruction_exp.started,instruction_exp.stopped,key_resp_8.keys,key_resp_8.rt,key_resp_8.duration,instruction_single.started,instruction_single.stopped,key_resp_2.keys,key_resp_2.rt,key_resp_2.duration,interval.started,interval.stopped,cue_single.started,cue_single.stopped,mask.started,mask.stopped,ori_response_single.started,res_ori,res,ori_response_single.stopped,key_resp_single.keys,key_resp_single.rt,key_resp_single.duration,disp_single.started,disp_single.stopped,key_resp.keys,key_resp.rt,key_resp.duration,single.thisRepN,single.thisTrialN,single.thisN,single.thisIndex,single.ran,ori,path,mask_path,instruction_bandit.started,instruction_bandit.stopped,key_resp_6.keys,key_resp_6.rt,key_resp_6.duration,cue_bandit.started,cue_bandit.stopped,bandit_res.keys,bandit_res.rt,bandit_res.duration,outcome_bandit.started,rew,action,outcome_bandit.stopped,bandit.thisRepN,bandit.thisTrialN,bandit.thisN,bandit.thisIndex,bandit.ran,actual_rew1,actual_rew2,rew1,rew2,instruction_task.started,instruction_task.stopped,key_resp_7.keys,key_resp_7.rt,key_resp_7.duration,wait_ready.started,wait_ready.stopped,key_resp_3.keys,key_resp_3.rt,key_resp_3.duration,cue.started,cue.stopped,ori_response.started,ori_response.stopped,key_resp_5.keys,key_resp_5.rt,key_resp_5.duration,outcome.started,diff1,diff2,outcome.stopped,disp_outcome_practice.started,disp_outcome_practice.stopped,key_resp_4.keys,key_resp_4.rt,key_resp_4.duration,trials.thisRepN,trials.thisTrialN,trials.thisN,trials.thisIndex,trials.ran,ori1,ori2,break_blk.started,break_blk.stopped,block.thisRepN,block.thisTrialN,block.thisN,block.thisIndex,block.ran,condition_file
0.0003,0.0004,5edc60da1f4a2392b9f843ad,65af5546dc8991f4776b9ef6,2024-01-23_24h02.10.163,bars,2023.2.3,Win32,60.97560976,657b66ea316d21385b68909f,,,,,,,,,,,,,,,,,,,,,,,,,,,,,,,,,,,,,,,,,,,,,,,,,,,,,,,,,,,,,,,,,,,,,,,,,,,,,,,,,,,,,,,,,,,,,,,,,,,,
,,5edc60da1f4a2392b9f843ad,65af5546dc8991f4776b9ef6,2024-01-23_24h02.10.163,bars,2023.2.3,Win32,60.97560976,657b66ea316d21385b68909f,0.0007,8.8482,y,8.8386,,,,,,,,,,,,,,,,,,,,,,,,,,,,,,,,,,,,,,,,,,,,,,,,,,,,,,,,,,,,,,,,,,,,,,,,,,,,,,,,,,,,,,,,,,,,,,,,
,,5edc60da1f4a2392b9f843ad,65af5546dc8991f4776b9ef6,2024-01-23_24h02.10.163,bars,2023.2.3,Win32,60.97560976,657b66ea316d21385b68909f,,,,,,8.8483,19.3887,space,10.524,,,,,,,,,,,,,,,,,,,,,,,,,,,,,,,,,,,,,,,,,,,,,,,,,,,,,,,,,,,,,,,,,,,,,,,,,,,,,,,,,,,,,,,,,,,
,,5edc60da1f4a2392b9f843ad,65af5546dc8991f4776b9ef6,2024-01-23_24h02.10.163,bars,2023.2.3,Win32,60.97560976,657b66ea316d21385b68909f,,,,,,,,,,,19.3928,20.3873,20.3876,20.8904,20.8906,21.1414,21.1415,133,133,30.942,space,9.7681,,30.942,34.2532,space,3.2889,,0,0,0,9,1,20,bars/single009.png,bars/mask006.png,,,,,,,,,,,,,,,,,,,,,,,,,,,,,,,,,,,,,,,,,,,,,,,,,,,,,,,,,,,,,,,,
,,5edc60da1f4a2392b9f843ad,65af5546dc8991f4776b9ef6,2024-01-23_24h02.10.163,bars,2023.2.3,Win32,60.97560976,657b66ea316d21385b68909f,,,,,,,,,,,34.2536,35.2563,35.2563,35.7595,35.7595,36.0089,36.0089,152,-28,40.7103,space,4.6834,,40.7103,44.6231,space,3.8817,,0,1,1,5,1,55,bars/single005.png,bars/mask008.png,,,,,,,,,,,,,,,,,,,,,,,,,,,,,,,,,,,,,,,,,,,,,,,,,,,,,,,,,,,,,,,,
,,5edc60da1f4a2392b9f843ad,65af5546dc8991f4776b9ef6,2024-01-23_24h02.10.163,bars,2023.2.3,Win32,60.97560976,657b66ea316d21385b68909f,,,,,,,,,,,44.6291,45.6262,45.6263,46.1284,46.1284,46.3793,46.3793,85,85,49.3059,space,2.9085,,49.306,51.1962,space,1.8688,,0,2,2,4,1,95,bars/single004.png,bars/mask004.png,,,,,,,,,,,,,,,,,,,,,,,,,,,,,,,,,,,,,,,,,,,,,,,,,,,,,,,,,,,,,,,,
,,5edc60da1f4a2392b9f843ad,65af5546dc8991f4776b9ef6,2024-01-23_24h02.10.163,bars,2023.2.3,Win32,60.97560976,657b66ea316d21385b68909f,,,,,,,,,,,51.1964,52.1994,52.1994,52.7014,52.7014,52.9527,52.9527,143,143,56.9165,space,3.9418,,56.9166,58.355,space,1.419,,0,3,3,2,1,145,bars/single002.png,bars/mask003.png,,,,,,,,,,,,,,,,,,,,,,,,,,,,,,,,,,,,,,,,,,,,,,,,,,,,,,,,,,,,,,,,
,,5edc60da1f4a2392b9f843ad,65af5546dc8991f4776b9ef6,2024-01-23_24h02.10.163,bars,2023.2.3,Win32,60.97560976,657b66ea316d21385b68909f,,,,,,,,,,,58.3553,59.3581,59.3581,59.8604,59.8604,60.1111,60.1111,175,175,64.2776,space,4.1642,,64.2776,67.437,space,3.1295,,0,4,4,8,1,160,bars/single008.png,bars/mask004.png,,,,,,,,,,,,,,,,,,,,,,,,,,,,,,,,,,,,,,,,,,,,,,,,,,,,,,,,,,,,,,,,
,,5edc60da1f4a2392b9f843ad,65af5546dc8991f4776b9ef6,2024-01-23_24h02.10.163,bars,2023.2.3,Win32,60.97560976,657b66ea316d21385b68909f,,,,,,,,,,,67.4429,68.4408,68.4408,68.9424,68.9424,69.1933,69.1933,176,-4,75.666,space,6.4403,,75.666,79.0115,space,3.3198,,0,5,5,6,1,175,bars/single006.png,bars/mask005.png,,,,,,,,,,,,,,,,,,,,,,,,,,,,,,,,,,,,,,,,,,,,,,,,,,,,,,,,,,,,,,,,
,,5edc60da1f4a2392b9f843ad,65af5546dc8991f4776b9ef6,2024-01-23_24h02.10.163,bars,2023.2.3,Win32,60.97560976,657b66ea316d21385b68909f,,,,,,,,,,,79.0119,80.0149,80.0149,80.5162,80.5163,80.7673,80.7673,159,-21,84.6476,space,3.8603,,84.6476,87.926,space,3.2477,,0,6,6,0,1,150,bars/single000.png,bars/mask006.png,,,,,,,,,,,,,,,,,,,,,,,,,,,,,,,,,,,,,,,,,,,,,,,,,,,,,,,,,,,,,,,,
,,5edc60da1f4a2392b9f843ad,65af5546dc8991f4776b9ef6,2024-01-23_24h02.10.163,bars,2023.2.3,Win32,60.97560976,657b66ea316d21385b68909f,,,,,,,,,,,87.9324,88.9298,88.9298,89.4315,89.4315,89.6824,89.6824,58,58,91.3379,space,1.6398,,91.3379,94.0307,space,2.6621,,0,7,7,7,1,45,bars/single007.png,bars/mask009.png,,,,,,,,,,,,,,,,,,,,,,,,,,,,,,,,,,,,,,,,,,,,,,,,,,,,,,,,,,,,,,,,
,,5edc60da1f4a2392b9f843ad,65af5546dc8991f4776b9ef6,2024-01-23_24h02.10.163,bars,2023.2.3,Win32,60.97560976,657b66ea316d21385b68909f,,,,,,,,,,,94.0311,95.0343,95.0344,95.5361,95.5361,95.7869,95.7869,29,29,98.6136,space,2.8117,,98.6137,100.8215,space,2.187,,0,8,8,3,1,20,bars/single003.png,bars/mask005.png,,,,,,,,,,,,,,,,,,,,,,,,,,,,,,,,,,,,,,,,,,,,,,,,,,,,,,,,,,,,,,,,
,,5edc60da1f4a2392b9f843ad,65af5546dc8991f4776b9ef6,2024-01-23_24h02.10.163,bars,2023.2.3,Win32,60.97560976,657b66ea316d21385b68909f,,,,,,,,,,,100.8219,101.8249,101.8249,102.3272,102.3272,102.5778,102.5778,7,7,107.4118,space,4.8177,,107.4119,109.1362,space,1.7053,,0,9,9,1,1,20,bars/single001.png,bars/mask006.png,,,,,,,,,,,,,,,,,,,,,,,,,,,,,,,,,,,,,,,,,,,,,,,,,,,,,,,,,,,,,,,,
,,5edc60da1f4a2392b9f843ad,65af5546dc8991f4776b9ef6,2024-01-23_24h02.10.163,bars,2023.2.3,Win32,60.97560976,657b66ea316d21385b68909f,,,,,,,,,,,,,,,,,,,,,,,,,,,,,,,,,,,,,109.1367,113.3828,space,4.2155,,,,,,,,,,,,,,,,,,,,,,,,,,,,,,,,,,,,,,,,,,,,,,,,,,,,,,,,,,,,
,,5edc60da1f4a2392b9f843ad,65af5546dc8991f4776b9ef6,2024-01-23_24h02.10.163,bars,2023.2.3,Win32,60.97560976,657b66ea316d21385b68909f,,,,,,,,,,,,,,,,,,,,,,,,,,,,,,,,,,,,,,,,,,113.3906,118.016,right,4.613,,118.0161,2,2,119.0193,0,0,0,0,1,9,1,9,2,,,,,,,,,,,,,,,,,,,,,,,,,,,,,,,,,,,,,,,,,
,,5edc60da1f4a2392b9f843ad,65af5546dc8991f4776b9ef6,2024-01-23_24h02.10.163,bars,2023.2.3,Win32,60.97560976,657b66ea316d21385b68909f,,,,,,,,,,,,,,,,,,,,,,,,,,,,,,,,,,,,,,,,,,119.0196,120.4576,left,1.4141,,120.4576,10,1,121.461,0,1,1,1,1,10,0,10,1,,,,,,,,,,,,,,,,,,,,,,,,,,,,,,,,,,,,,,,,,
,,5edc60da1f4a2392b9f843ad,65af5546dc8991f4776b9ef6,2024-01-23_24h02.10.163,bars,2023.2.3,Win32,60.97560976,657b66ea316d21385b68909f,,,,,,,,,,,,,,,,,,,,,,,,,,,,,,,,,,,,,,,,,,121.4671,123.0167,left,1.5259,,123.0167,10,1,124.0205,0,2,2,2,1,10,2,10,2,,,,,,,,,,,,,,,,,,,,,,,,,,,,,,,,,,,,,,,,,
,,5edc60da1f4a2392b9f843ad,65af5546dc8991f4776b9ef6,2024-01-23_24h02.10.163,bars,2023.2.3,Win32,60.97560976,657b66ea316d21385b68909f,,,,,,,,,,,,,,,,,,,,,,,,,,,,,,,,,,,,,,,,,,124.0209,124.5388,left,0.4881,,124.5388,7,1,125.5265,0,3,3,3,1,8,4,7,3,,,,,,,,,,,,,,,,,,,,,,,,,,,,,,,,,,,,,,,,,
,,5edc60da1f4a2392b9f843ad,65af5546dc8991f4776b9ef6,2024-01-23_24h02.10.163,bars,2023.2.3,Win32,60.97560976,657b66ea316d21385b68909f,,,,,,,,,,,,,,,,,,,,,,,,,,,,,,,,,,,,,,,,,,125.5267,125.9437,right,0.3867,,125.9437,1,2,126.9471,0,4,4,4,1,6,2,5,1,,,,,,,,,,,,,,,,,,,,,,,,,,,,,,,,,,,,,,,,,
,,5edc60da1f4a2392b9f843ad,65af5546dc8991f4776b9ef6,2024-01-23_24h02.10.163,bars,2023.2.3,Win32,60.97560976,657b66ea316d21385b68909f,,,,,,,,,,,,,,,,,,,,,,,,,,,,,,,,,,,,,,,,,,126.9475,127.3654,right,0.3926,,127.3655,4,2,128.369,0,5,5,5,1,4,4,4,4,,,,,,,,,,,,,,,,,,,,,,,,,,,,,,,,,,,,,,,,,
,,5edc60da1f4a2392b9f843ad,65af5546dc8991f4776b9ef6,2024-01-23_24h02.10.163,bars,2023.2.3,Win32,60.97560976,657b66ea316d21385b68909f,,,,,,,,,,,,,,,,,,,,,,,,,,,,,,,,,,,,,,,,,,128.3693,128.9376,right,0.5394,,128.9376,2,2,129.9409,0,6,6,6,1,2,2,1,2,,,,,,,,,,,,,,,,,,,,,,,,,,,,,,,,,,,,,,,,,
,,5edc60da1f4a2392b9f843ad,65af5546dc8991f4776b9ef6,2024-01-23_24h02.10.163,bars,2023.2.3,Win32,60.97560976,657b66ea316d21385b68909f,,,,,,,,,,,,,,,,,,,,,,,,,,,,,,,,,,,,,,,,,,129.9412,130.2757,left,0.3069,,130.2758,0,1,131.279,0,7,7,7,1,0,0,0,1,,,,,,,,,,,,,,,,,,,,,,,,,,,,,,,,,,,,,,,,,
,,5edc60da1f4a2392b9f843ad,65af5546dc8991f4776b9ef6,2024-01-23_24h02.10.163,bars,2023.2.3,Win32,60.97560976,657b66ea316d21385b68909f,,,,,,,,,,,,,,,,,,,,,,,,,,,,,,,,,,,,,,,,,,131.2793,131.7811,right,0.4842,,131.7811,0,2,132.7847,0,8,8,8,1,0,2,1,0,,,,,,,,,,,,,,,,,,,,,,,,,,,,,,,,,,,,,,,,,
,,5edc60da1f4a2392b9f843ad,65af5546dc8991f4776b9ef6,2024-01-23_24h02.10.163,bars,2023.2.3,Win32,60.97560976,657b66ea316d21385b68909f,,,,,,,,,,,,,,,,,,,,,,,,,,,,,,,,,,,,,,,,,,132.785,133.1192,right,0.3147,,133.1193,3,2,134.1227,0,9,9,9,1,2,4,2,3,,,,,,,,,,,,,,,,,,,,,,,,,,,,,,,,,,,,,,,,,
,,5edc60da1f4a2392b9f843ad,65af5546dc8991f4776b9ef6,2024-01-23_24h02.10.163,bars,2023.2.3,Win32,60.97560976,657b66ea316d21385b68909f,,,,,,,,,,,,,,,,,,,,,,,,,,,,,,,,,,,,,,,,,,134.123,134.424,left,0.2716,,134.424,0,1,135.4281,0,10,10,10,1,0,2,0,3,,,,,,,,,,,,,,,,,,,,,,,,,,,,,,,,,,,,,,,,,
,,5edc60da1f4a2392b9f843ad,65af5546dc8991f4776b9ef6,2024-01-23_24h02.10.163,bars,2023.2.3,Win32,60.97560976,657b66ea316d21385b68909f,,,,,,,,,,,,,,,,,,,,,,,,,,,,,,,,,,,,,,,,,,135.4284,135.7451,right,0.2987,,135.7451,3,2,136.7495,0,11,11,11,1,0,4,0,3,,,,,,,,,,,,,,,,,,,,,,,,,,,,,,,,,,,,,,,,,
,,5edc60da1f4a2392b9f843ad,65af5546dc8991f4776b9ef6,2024-01-23_24h02.10.163,bars,2023.2.3,Win32,60.97560976,657b66ea316d21385b68909f,,,,,,,,,,,,,,,,,,,,,,,,,,,,,,,,,,,,,,,,,,136.7497,136.9492,right,0.1797,,136.9493,6,2,137.953,0,12,12,12,1,2,6,1,6,,,,,,,,,,,,,,,,,,,,,,,,,,,,,,,,,,,,,,,,,
,,5edc60da1f4a2392b9f843ad,65af5546dc8991f4776b9ef6,2024-01-23_24h02.10.163,bars,2023.2.3,Win32,60.97560976,657b66ea316d21385b68909f,,,,,,,,,,,,,,,,,,,,,,,,,,,,,,,,,,,,,,,,,,137.9532,138.1869,right,0.2124,,138.1869,3,2,139.1902,0,13,13,13,1,0,4,1,3,,,,,,,,,,,,,,,,,,,,,,,,,,,,,,,,,,,,,,,,,
,,5edc60da1f4a2392b9f843ad,65af5546dc8991f4776b9ef6,2024-01-23_24h02.10.163,bars,2023.2.3,Win32,60.97560976,657b66ea316d21385b68909f,,,,,,,,,,,,,,,,,,,,,,,,,,,,,,,,,,,,,,,,,,139.1905,139.4931,right,0.2849,,139.4932,7,2,140.4952,0,14,14,14,1,2,6,2,7,,,,,,,,,,,,,,,,,,,,,,,,,,,,,,,,,,,,,,,,,
,,5edc60da1f4a2392b9f843ad,65af5546dc8991f4776b9ef6,2024-01-23_24h02.10.163,bars,2023.2.3,Win32,60.97560976,657b66ea316d21385b68909f,,,,,,,,,,,,,,,,,,,,,,,,,,,,,,,,,,,,,,,,,,140.4955,140.7962,right,0.2731,,140.7962,9,2,141.7997,0,15,15,15,1,4,8,3,9,,,,,,,,,,,,,,,,,,,,,,,,,,,,,,,,,,,,,,,,,
,,5edc60da1f4a2392b9f843ad,65af5546dc8991f4776b9ef6,2024-01-23_24h02.10.163,bars,2023.2.3,Win32,60.97560976,657b66ea316d21385b68909f,,,,,,,,,,,,,,,,,,,,,,,,,,,,,,,,,,,,,,,,,,141.8002,142.0341,right,0.2119,,142.0341,7,2,143.0372,0,16,16,16,1,6,6,7,7,,,,,,,,,,,,,,,,,,,,,,,,,,,,,,,,,,,,,,,,,
,,5edc60da1f4a2392b9f843ad,65af5546dc8991f4776b9ef6,2024-01-23_24h02.10.163,bars,2023.2.3,Win32,60.97560976,657b66ea316d21385b68909f,,,,,,,,,,,,,,,,,,,,,,,,,,,,,,,,,,,,,,,,,,143.0375,143.2213,right,0.1516,,143.2213,5,2,144.225,0,17,17,17,1,8,4,9,5,,,,,,,,,,,,,,,,,,,,,,,,,,,,,,,,,,,,,,,,,
,,5edc60da1f4a2392b9f843ad,65af5546dc8991f4776b9ef6,2024-01-23_24h02.10.163,bars,2023.2.3,Win32,60.97560976,657b66ea316d21385b68909f,,,,,,,,,,,,,,,,,,,,,,,,,,,,,,,,,,,,,,,,,,144.2253,144.3255,right,0.072,,144.3255,1,2,145.3286,0,18,18,18,1,6,2,5,1,,,,,,,,,,,,,,,,,,,,,,,,,,,,,,,,,,,,,,,,,
,,5edc60da1f4a2392b9f843ad,65af5546dc8991f4776b9ef6,2024-01-23_24h02.10.163,bars,2023.2.3,Win32,60.97560976,657b66ea316d21385b68909f,,,,,,,,,,,,,,,,,,,,,,,,,,,,,,,,,,,,,,,,,,145.329,145.4126,right,0.0532,,145.4127,0,2,146.4158,0,19,19,19,1,8,0,7,0,,,,,,,,,,,,,,,,,,,,,,,,,,,,,,,,,,,,,,,,,
,,5edc60da1f4a2392b9f843ad,65af5546dc8991f4776b9ef6,2024-01-23_24h02.10.163,bars,2023.2.3,Win32,60.97560976,657b66ea316d21385b68909f,,,,,,,,,,,,,,,,,,,,,,,,,,,,,,,,,,,,,,,,,,,,,,,,,,,,,,,,,,,,146.4163,148.8246,space,2.3883,,,,,,,,,,,,,,,,,,,,,,,,,,,,,,,,,,,,,
,,5edc60da1f4a2392b9f843ad,65af5546dc8991f4776b9ef6,2024-01-23_24h02.10.163,bars,2023.2.3,Win32,60.97560976,657b66ea316d21385b68909f,,,,,,,,,,,149.6802,150.6808,,,151.1831,151.4337,,91,91,,,,,,,,,,,,,,,,bars/012.png,bars/mask009.png,,,,,,,,,,,,2,1,,,,,,,3,3,2,3,,,,,,148.8262,149.6776,space,0.8335,,150.6811,151.183,151.434,154.6788,space,3.2218,,154.679,1,76,155.682,155.6821,162.3576,space,6.6563,,0,0,0,0,1,90,15,,,,,,,,
,,5edc60da1f4a2392b9f843ad,65af5546dc8991f4776b9ef6,2024-01-23_24h02.10.163,bars,2023.2.3,Win32,60.97560976,657b66ea316d21385b68909f,,,,,,,,,,,162.3636,163.3593,,,163.8612,164.1116,,153,-27,,,,,,,,,,,,,,,,bars/018.png,bars/mask005.png,,,,,,,,,,,,1,1,,,,,,,1,1,1,2,,,,,,,,,,,163.3594,163.8612,164.1116,168.6616,space,4.5348,,168.6617,3,63,169.6646,169.6646,172.0901,space,2.3945,,0,1,1,1,1,150,90,,,,,,,,
,,5edc60da1f4a2392b9f843ad,65af5546dc8991f4776b9ef6,2024-01-23_24h02.10.163,bars,2023.2.3,Win32,60.97560976,657b66ea316d21385b68909f,,,,,,,,,,,172.0904,173.0942,,,173.5956,173.8461,,86,86,,,,,,,,,,,,,,,,bars/048.png,bars/mask004.png,,,,,,,,,,,,0,1,,,,,,,3,0,4,0,,,,,,,,,,,173.0942,173.5955,173.8462,175.8868,space,2.0294,,175.8868,36,89,176.8912,176.8913,178.6301,space,1.7094,,0,2,2,2,1,50,175,,,,,,,,
,,5edc60da1f4a2392b9f843ad,65af5546dc8991f4776b9ef6,2024-01-23_24h02.10.163,bars,2023.2.3,Win32,60.97560976,657b66ea316d21385b68909f,,,,,,,,,,,178.6303,179.6335,,,180.1352,180.3859,,100,100,,,,,,,,,,,,,,,,bars/014.png,bars/mask009.png,,,,,,,,,,,,0,1,,,,,,,1,2,0,4,,,,,,,,,,,179.6335,180.1352,180.3859,184.7352,space,4.3343,,184.7353,20,80,185.7382,185.7383,187.4966,space,1.7395,,0,3,3,3,1,80,0,,,,,,,,
,,5edc60da1f4a2392b9f843ad,65af5546dc8991f4776b9ef6,2024-01-23_24h02.10.163,bars,2023.2.3,Win32,60.97560976,657b66ea316d21385b68909f,,,,,,,,,,,187.4969,188.4978,,,189,189.2507,,65,65,,,,,,,,,,,,,,,,bars/015.png,bars/mask002.png,,,,,,,,,,,,0,1,,,,,,,3,4,4,4,,,,,,,,,,,188.4978,189,189.2507,190.5403,space,1.2873,,190.5404,45,85,191.5422,191.5423,193.417,space,1.8558,,0,4,4,4,1,110,160,,,,,,,,
,,5edc60da1f4a2392b9f843ad,65af5546dc8991f4776b9ef6,2024-01-23_24h02.10.163,bars,2023.2.3,Win32,60.97560976,657b66ea316d21385b68909f,,,,,,,,,,,193.4172,194.4189,,,194.9206,195.1717,,101,281,,,,,,,,,,,,,,,,bars/025.png,bars/mask006.png,,,,,,,,,,,,2,1,,,,,,,1,6,2,6,,,,,,,,,,,194.4189,194.9206,195.1717,200.0224,space,4.8192,,200.0224,4,61,201.0255,201.0255,203.7852,space,2.738,,0,5,5,5,1,105,40,,,,,,,,
,,5edc60da1f4a2392b9f843ad,65af5546dc8991f4776b9ef6,2024-01-23_24h02.10.163,bars,2023.2.3,Win32,60.97560976,657b66ea316d21385b68909f,,,,,,,,,,,203.7912,204.7887,,,205.2908,205.5417,,23,23,,,,,,,,,,,,,,,,bars/039.png,bars/mask007.png,,,,,,,,,,,,0,1,,,,,,,0,8,0,6,,,,,,,,,,,204.7888,205.2907,205.5418,207.8853,space,2.3414,,207.8853,28,82,208.8866,208.8867,211.1116,space,2.201,,0,6,6,6,1,175,105,,,,,,,,
,,5edc60da1f4a2392b9f843ad,65af5546dc8991f4776b9ef6,2024-01-23_24h02.10.163,bars,2023.2.3,Win32,60.97560976,657b66ea316d21385b68909f,,,,,,,,,,,211.1119,212.1148,,,212.6162,212.8672,,34,214,,,,,,,,,,,,,,,,bars/000.png,bars/mask001.png,,,,,,,,,,,,0,1,,,,,,,0,6,0,6,,,,,,,,,,,212.115,212.6162,212.8672,217.2662,space,4.3853,,217.2662,6,69,218.2696,218.2696,221.5316,space,3.2283,,0,7,7,7,1,40,145,,,,,,,,
,,5edc60da1f4a2392b9f843ad,65af5546dc8991f4776b9ef6,2024-01-23_24h02.10.163,bars,2023.2.3,Win32,60.97560976,657b66ea316d21385b68909f,,,,,,,,,,,221.5383,222.5361,,,223.0365,223.2874,,116,-64,,,,,,,,,,,,,,,,bars/040.png,bars/mask003.png,,,,,,,,,,,,0,1,,,,,,,2,4,1,4,,,,,,,,,,,222.5361,223.0364,223.2874,227.4876,space,4.1979,,227.4876,24,69,228.4894,228.4895,232.3697,space,3.8532,,0,8,8,8,1,140,5,,,,,,,,
,,5edc60da1f4a2392b9f843ad,65af5546dc8991f4776b9ef6,2024-01-23_24h02.10.163,bars,2023.2.3,Win32,60.97560976,657b66ea316d21385b68909f,,,,,,,,,,,232.3761,233.3729,,,233.8754,234.1255,,140,140,,,,,,,,,,,,,,,,bars/030.png,bars/mask005.png,,,,,,,,,,,,3,1,,,,,,,4,6,3,6,,,,,,,,,,,233.373,233.8754,234.1256,237.9238,space,3.7741,,237.9238,0,75,238.9259,238.9259,244.5797,space,5.6212,,0,9,9,9,1,140,65,,,,,,,,
,,5edc60da1f4a2392b9f843ad,65af5546dc8991f4776b9ef6,2024-01-23_24h02.10.163,bars,2023.2.3,Win32,60.97560976,657b66ea316d21385b68909f,,,,,,,,,,,244.5857,245.5827,,,246.0846,246.3357,,89,-91,,,,,,,,,,,,,,,,bars/022.png,bars/mask000.png,,,,,,,,,,,,6,1,,,,,,,6,8,7,9,,,,,,,,,,,245.5828,246.0845,246.3357,251.32,space,4.9627,,251.32,6,69,252.3236,252.3236,253.6785,space,1.3218,,0,10,10,10,1,95,20,,,,,,,,
,,5edc60da1f4a2392b9f843ad,65af5546dc8991f4776b9ef6,2024-01-23_24h02.10.163,bars,2023.2.3,Win32,60.97560976,657b66ea316d21385b68909f,,,,,,,,,,,253.6789,254.6819,,,255.185,255.4346,,142,-38,,,,,,,,,,,,,,,,bars/011.png,bars/mask005.png,,,,,,,,,,,,2,1,,,,,,,4,6,4,5,,,,,,,,,,,254.6819,255.185,255.4346,261.2053,space,5.7552,,261.2054,18,57,262.2082,262.2082,269.1499,space,6.9109,,0,11,11,11,1,160,85,,,,,,,,
,,5edc60da1f4a2392b9f843ad,65af5546dc8991f4776b9ef6,2024-01-23_24h02.10.163,bars,2023.2.3,Win32,60.97560976,657b66ea316d21385b68909f,,,,,,,,,,,269.1559,270.1532,,,270.656,270.9056,,76,76,,,,,,,,,,,,,,,,bars/029.png,bars/mask001.png,,,,,,,,,,,,1,1,,,,,,,2,8,2,9,,,,,,,,,,,270.1532,270.656,270.9056,273.5818,space,2.6567,,273.5819,14,31,274.5856,274.5856,277.0613,space,2.453,,0,12,12,12,1,90,45,,,,,,,,
,,5edc60da1f4a2392b9f843ad,65af5546dc8991f4776b9ef6,2024-01-23_24h02.10.163,bars,2023.2.3,Win32,60.97560976,657b66ea316d21385b68909f,,,,,,,,,,,277.0615,278.0645,,,278.566,278.8168,,166,-14,,,,,,,,,,,,,,,,bars/007.png,bars/mask000.png,,,,,,,,,,,,1,1,,,,,,,0,10,1,9,,,,,,,,,,,278.0645,278.5659,278.8168,283.3666,space,4.5457,,283.3667,9,69,284.3701,284.3702,287.6484,space,3.2576,,0,13,13,13,1,175,55,,,,,,,,
,,5edc60da1f4a2392b9f843ad,65af5546dc8991f4776b9ef6,2024-01-23_24h02.10.163,bars,2023.2.3,Win32,60.97560976,657b66ea316d21385b68909f,,,,,,,,,,,287.6545,288.6516,,,289.1535,289.4042,,35,35,,,,,,,,,,,,,,,,bars/005.png,bars/mask001.png,,,,,,,,,,,,0,1,,,,,,,2,10,1,10,,,,,,,,,,,288.6516,289.1534,289.4042,290.6758,space,1.2553,,290.6758,25,75,291.6789,291.6789,293.2347,space,1.524,,0,14,14,14,1,10,140,,,,,,,,
,,5edc60da1f4a2392b9f843ad,65af5546dc8991f4776b9ef6,2024-01-23_24h02.10.163,bars,2023.2.3,Win32,60.97560976,657b66ea316d21385b68909f,,,,,,,,,,,293.235,294.2383,,,294.7404,294.9909,,97,97,,,,,,,,,,,,,,,,bars/025.png,bars/mask009.png,,,,,,,,,,,,0,1,,,,,,,0,8,0,8,,,,,,,,,,,294.2383,294.7404,294.991,297.3495,space,2.3315,,297.3495,8,57,298.3528,298.3528,300.8283,space,2.4466,,0,15,15,15,1,105,40,,,,,,,,
,,5edc60da1f4a2392b9f843ad,65af5546dc8991f4776b9ef6,2024-01-23_24h02.10.163,bars,2023.2.3,Win32,60.97560976,657b66ea316d21385b68909f,,,,,,,,,,,300.8286,301.8314,,,302.3333,302.5841,,114,-66,,,,,,,,,,,,,,,,bars/024.png,bars/mask005.png,,,,,,,,,,,,1,1,,,,,,,0,10,1,8,,,,,,,,,,,301.8314,302.3333,302.5841,307.9866,space,5.3923,,307.9867,6,56,308.99,308.9902,310.6794,space,1.6624,,0,16,16,16,1,120,170,,,,,,,,
,,5edc60da1f4a2392b9f843ad,65af5546dc8991f4776b9ef6,2024-01-23_24h02.10.163,bars,2023.2.3,Win32,60.97560976,657b66ea316d21385b68909f,,,,,,,,,,,310.6798,311.6844,,,312.1847,312.4356,,120,120,,,,,,,,,,,,,,,,bars/040.png,bars/mask000.png,,,,,,,,,,,,0,1,,,,,,,0,10,0,9,,,,,,,,,,,311.6845,312.1847,312.4356,316.1007,space,3.647,,316.1007,20,65,317.1023,317.1024,318.089,space,0.9656,,0,17,17,17,1,140,5,,,,,,,,
,,5edc60da1f4a2392b9f843ad,65af5546dc8991f4776b9ef6,2024-01-23_24h02.10.163,bars,2023.2.3,Win32,60.97560976,657b66ea316d21385b68909f,,,,,,,,,,,318.0895,319.0924,,,319.5946,319.8454,,34,214,,,,,,,,,,,,,,,,bars/018.png,bars/mask003.png,,,,,,,,,,,,0,2,,,,,,,2,10,2,10,,,,,,,,,,,319.0924,319.5945,319.8454,322.1035,space,2.2424,,322.1035,64,56,323.1066,323.1067,324.1942,space,1.0627,,0,18,18,18,1,150,90,,,,,,,,
,,5edc60da1f4a2392b9f843ad,65af5546dc8991f4776b9ef6,2024-01-23_24h02.10.163,bars,2023.2.3,Win32,60.97560976,657b66ea316d21385b68909f,,,,,,,,,,,324.1945,325.1976,,,325.6994,325.95,,103,-77,,,,,,,,,,,,,,,,bars/027.png,bars/mask001.png,,,,,,,,,,,,4,1,,,,,,,4,8,5,8,,,,,,,,,,,325.1976,325.6994,325.95,330.2492,space,4.2905,,330.2492,7,53,331.2368,331.2369,332.2057,space,0.9466,,0,19,19,19,1,110,50,,,,,,,,
,,5edc60da1f4a2392b9f843ad,65af5546dc8991f4776b9ef6,2024-01-23_24h02.10.163,bars,2023.2.3,Win32,60.97560976,657b66ea316d21385b68909f,,,,,,,,,,,332.206,333.2093,,,333.7111,333.9617,,159,-21,,,,,,,,,,,,,,,,bars/042.png,bars/mask007.png,,,,,,,,,,,,4,1,,,,,,,6,10,7,10,,,,,,,,,,,333.2093,333.7111,333.9617,337.7087,space,3.7393,,337.7088,14,84,338.7131,338.7132,339.5147,space,0.7698,,0,20,20,20,1,145,75,,,,,,,,
,,5edc60da1f4a2392b9f843ad,65af5546dc8991f4776b9ef6,2024-01-23_24h02.10.163,bars,2023.2.3,Win32,60.97560976,657b66ea316d21385b68909f,,,,,,,,,,,339.5152,340.5185,,,341.0203,341.2724,,22,202,,,,,,,,,,,,,,,,bars/041.png,bars/mask000.png,,,,,,,,,,,,7,1,,,,,,,8,8,7,7,,,,,,,,,,,340.5185,341.0202,341.2724,342.944,space,1.6555,,342.944,2,63,343.9469,343.9469,344.9343,space,0.9675,,0,21,21,21,1,20,85,,,,,,,,
,,5edc60da1f4a2392b9f843ad,65af5546dc8991f4776b9ef6,2024-01-23_24h02.10.163,bars,2023.2.3,Win32,60.97560976,657b66ea316d21385b68909f,,,,,,,,,,,344.9348,345.9373,,,346.4395,346.6911,,102,102,,,,,,,,,,,,,,,,bars/012.png,bars/mask003.png,,,,,,,,,,,,4,1,,,,,,,6,10,6,10,,,,,,,,,,,345.9373,346.4395,346.6912,350.3207,space,3.6275,,350.3208,12,87,351.3235,351.3235,352.0592,space,0.7052,,0,22,22,22,1,90,15,,,,,,,,
,,5edc60da1f4a2392b9f843ad,65af5546dc8991f4776b9ef6,2024-01-23_24h02.10.163,bars,2023.2.3,Win32,60.97560976,657b66ea316d21385b68909f,,,,,,,,,,,352.0595,353.0624,,,353.5647,353.8154,,29,209,,,,,,,,,,,,,,,,bars/019.png,bars/mask006.png,,,,,,,,,,,,1,1,,,,,,,4,8,3,7,,,,,,,,,,,353.0625,353.5647,353.8154,356.3575,space,2.5231,,356.3576,16,76,357.3613,357.3615,358.1142,space,0.7219,,0,23,23,23,1,45,105,,,,,,,,
,,5edc60da1f4a2392b9f843ad,65af5546dc8991f4776b9ef6,2024-01-23_24h02.10.163,bars,2023.2.3,Win32,60.97560976,657b66ea316d21385b68909f,,,,,,,,,,,358.1146,359.1174,,,359.6192,359.8711,,12,12,,,,,,,,,,,,,,,,bars/035.png,bars/mask001.png,,,,,,,,,,,,3,1,,,,,,,6,10,6,10,,,,,,,,,,,359.1174,359.6191,359.8711,360.6914,space,0.8182,,360.6915,17,48,361.693,361.6931,362.3453,space,0.6257,,0,24,24,24,1,175,60,,,,,,,,
,,5edc60da1f4a2392b9f843ad,65af5546dc8991f4776b9ef6,2024-01-23_24h02.10.163,bars,2023.2.3,Win32,60.97560976,657b66ea316d21385b68909f,,,,,,,,,,,362.3458,363.349,,,363.8509,364.1015,,69,69,,,,,,,,,,,,,,,,bars/044.png,bars/mask009.png,,,,,,,,,,,,6,1,,,,,,,8,10,8,9,,,,,,,,,,,363.349,363.8508,364.1015,365.4399,space,1.3222,,365.44,6,86,366.4433,366.4433,367.0791,space,0.604,,0,25,25,25,1,75,155,,,,,,,,
,,5edc60da1f4a2392b9f843ad,65af5546dc8991f4776b9ef6,2024-01-23_24h02.10.163,bars,2023.2.3,Win32,60.97560976,657b66ea316d21385b68909f,,,,,,,,,,,367.0794,368.0825,,,368.5851,368.8364,,97,97,,,,,,,,,,,,,,,,bars/024.png,bars/mask003.png,,,,,,,,,,,,2,1,,,,,,,10,8,10,8,,,,,,,,,,,368.0825,368.5851,368.8364,370.658,space,1.8106,,370.6581,23,73,371.6618,371.6618,371.9295,space,0.2347,,0,26,26,26,1,120,170,,,,,,,,
,,5edc60da1f4a2392b9f843ad,65af5546dc8991f4776b9ef6,2024-01-23_24h02.10.163,bars,2023.2.3,Win32,60.97560976,657b66ea316d21385b68909f,,,,,,,,,,,371.9299,372.9329,,,373.4345,373.6853,,131,131,,,,,,,,,,,,,,,,bars/031.png,bars/mask004.png,,,,,,,,,,,,6,1,,,,,,,10,10,10,10,,,,,,,,,,,372.9329,373.4344,373.6854,377.1478,space,3.4381,,377.1478,11,84,378.1514,378.1514,380.1269,space,1.9566,,0,27,27,27,1,120,35,,,,,,,,
,,5edc60da1f4a2392b9f843ad,65af5546dc8991f4776b9ef6,2024-01-23_24h02.10.163,bars,2023.2.3,Win32,60.97560976,657b66ea316d21385b68909f,,,,,,,,,,,380.127,381.1285,,,381.63,381.8814,,145,145,,,,,,,,,,,,,,,,bars/042.png,bars/mask007.png,,,,,,,,,,,,8,1,,,,,,,8,10,8,10,,,,,,,,,,,381.1285,381.63,381.8814,384.9588,space,3.0693,,384.9588,0,70,385.9619,385.9619,386.3137,space,0.3244,,0,28,28,28,1,145,75,,,,,,,,
,,5edc60da1f4a2392b9f843ad,65af5546dc8991f4776b9ef6,2024-01-23_24h02.10.163,bars,2023.2.3,Win32,60.97560976,657b66ea316d21385b68909f,,,,,,,,,,,386.3141,387.3168,,,387.8186,388.0698,,149,149,,,,,,,,,,,,,,,,bars/001.png,bars/mask005.png,,,,,,,,,,,,3,1,,,,,,,10,8,9,9,,,,,,,,,,,387.3168,387.8185,388.0698,390.8799,space,2.7984,,390.8799,19,64,391.8833,391.8834,392.502,space,0.5984,,0,29,29,29,1,130,85,,,,,,,,
,,5edc60da1f4a2392b9f843ad,65af5546dc8991f4776b9ef6,2024-01-23_24h02.10.163,bars,2023.2.3,Win32,60.97560976,657b66ea316d21385b68909f,,,,,,,,,,,392.5024,393.5068,,,394.0071,394.2583,,31,31,,,,,,,,,,,,,,,,bars/023.png,bars/mask005.png,,,,,,,,,,,,4,1,,,,,,,8,10,7,10,,,,,,,,,,,393.5069,394.0071,394.2583,398.6235,space,4.3428,,398.6235,11,84,399.6272,399.6272,400.1455,space,0.492,,0,30,30,30,1,20,115,,,,,,,,
,,5edc60da1f4a2392b9f843ad,65af5546dc8991f4776b9ef6,2024-01-23_24h02.10.163,bars,2023.2.3,Win32,60.97560976,657b66ea316d21385b68909f,,,,,,,,,,,400.1461,401.1489,,,401.6508,401.902,,104,104,,,,,,,,,,,,,,,,bars/022.png,bars/mask000.png,,,,,,,,,,,,4,1,,,,,,,6,10,5,10,,,,,,,,,,,401.149,401.6508,401.902,403.976,space,2.0455,,403.9762,9,84,404.9639,404.9639,405.5145,space,0.5272,,0,31,31,31,1,95,20,,,,,,,,
,,5edc60da1f4a2392b9f843ad,65af5546dc8991f4776b9ef6,2024-01-23_24h02.10.163,bars,2023.2.3,Win32,60.97560976,657b66ea316d21385b68909f,,,,,,,,,,,405.5149,406.5026,,,407.0047,407.2541,,13,13,,,,,,,,,,,,,,,,bars/049.png,bars/mask003.png,,,,,,,,,,,,0,1,,,,,,,4,10,1,9,,,,,,,,,,,406.5026,407.0047,407.2541,409.2109,space,1.9355,,409.2109,33,78,410.2165,410.2166,410.6662,space,0.4256,,0,32,32,32,1,160,115,,,,,,,,
,,5edc60da1f4a2392b9f843ad,65af5546dc8991f4776b9ef6,2024-01-23_24h02.10.163,bars,2023.2.3,Win32,60.97560976,657b66ea316d21385b68909f,,,,,,,,,,,410.6666,411.6698,,,412.1717,412.4224,,92,92,,,,,,,,,,,,,,,,bars/012.png,bars/mask008.png,,,,,,,,,,,,2,1,,,,,,,2,8,2,8,,,,,,,,,,,411.6698,412.1717,412.4225,413.8606,space,1.4341,,413.8607,2,77,414.8645,414.8645,414.9648,space,0.0816,,0,33,33,33,1,90,15,,,,,,,,
,,5edc60da1f4a2392b9f843ad,65af5546dc8991f4776b9ef6,2024-01-23_24h02.10.163,bars,2023.2.3,Win32,60.97560976,657b66ea316d21385b68909f,,,,,,,,,,,414.9651,415.9683,,,416.4698,416.721,,35,35,,,,,,,,,,,,,,,,bars/026.png,bars/mask009.png,,,,,,,,,,,,5,1,,,,,,,4,6,5,8,,,,,,,,,,,415.9684,416.4698,416.721,418.9291,space,2.206,,418.9291,0,50,419.9334,419.9334,423.0096,space,3.0482,,0,34,34,34,1,35,85,,,,,,,,
,,5edc60da1f4a2392b9f843ad,65af5546dc8991f4776b9ef6,2024-01-23_24h02.10.163,bars,2023.2.3,Win32,60.97560976,657b66ea316d21385b68909f,,,,,,,,,,,423.01,424.0134,,,424.515,424.7657,,47,227,,,,,,,,,,,,,,,,bars/043.png,bars/mask007.png,,,,,,,,,,,,2,1,,,,,,,6,8,5,9,,,,,,,,,,,424.0135,424.515,424.7657,428.1449,space,3.3735,,428.145,17,83,429.1482,429.1483,429.449,space,0.2803,,0,35,35,35,1,30,130,,,,,,,,
,,5edc60da1f4a2392b9f843ad,65af5546dc8991f4776b9ef6,2024-01-23_24h02.10.163,bars,2023.2.3,Win32,60.97560976,657b66ea316d21385b68909f,,,,,,,,,,,429.4495,430.453,,,430.9546,431.2051,,144,-36,,,,,,,,,,,,,,,,bars/042.png,bars/mask006.png,,,,,,,,,,,,9,1,,,,,,,8,10,9,9,,,,,,,,,,,430.453,430.9546,431.2051,434.7033,space,3.4961,,434.7034,1,69,435.7047,435.7047,437.2267,space,1.4899,,0,36,36,36,1,145,75,,,,,,,,
,,5edc60da1f4a2392b9f843ad,65af5546dc8991f4776b9ef6,2024-01-23_24h02.10.163,bars,2023.2.3,Win32,60.97560976,657b66ea316d21385b68909f,,,,,,,,,,,437.227,438.2303,,,438.7321,438.9826,,31,211,,,,,,,,,,,,,,,,bars/003.png,bars/mask007.png,,,,,,,,,,,,7,1,,,,,,,10,8,9,9,,,,,,,,,,,438.2303,438.732,438.9826,442.6293,space,3.6176,,442.6293,6,71,443.6324,443.6325,444.1849,space,0.5195,,0,37,37,37,1,25,140,,,,,,,,
,,5edc60da1f4a2392b9f843ad,65af5546dc8991f4776b9ef6,2024-01-23_24h02.10.163,bars,2023.2.3,Win32,60.97560976,657b66ea316d21385b68909f,,,,,,,,,,,444.1851,445.1879,,,445.6898,445.9406,,39,39,,,,,,,,,,,,,,,,bars/026.png,bars/mask005.png,,,,,,,,,,,,9,1,,,,,,,10,10,10,10,,,,,,,,,,,445.1879,445.6898,445.9406,448.015,space,2.0633,,448.0151,4,46,449.0181,449.0181,449.1022,space,0.0542,,0,38,38,38,1,35,85,,,,,,,,
,,5edc60da1f4a2392b9f843ad,65af5546dc8991f4776b9ef6,2024-01-23_24h02.10.163,bars,2023.2.3,Win32,60.97560976,657b66ea316d21385b68909f,,,,,,,,,,,449.1026,450.1052,,,450.6074,450.8581,,7,7,,,,,,,,,,,,,,,,bars/047.png,bars/mask009.png,,,,,,,,,,,,7,1,,,,,,,10,10,10,10,,,,,,,,,,,450.1052,450.6074,450.8581,452.616,space,1.756,,452.6161,8,63,453.6187,453.6187,454.3708,space,0.7261,,0,39,39,39,1,15,70,,,,,,,,
,,5edc60da1f4a2392b9f843ad,65af5546dc8991f4776b9ef6,2024-01-23_24h02.10.163,bars,2023.2.3,Win32,60.97560976,657b66ea316d21385b68909f,,,,,,,,,,,454.3711,455.3742,,,455.8759,456.1268,,45,225,,,,,,,,,,,,,,,,bars/048.png,bars/mask001.png,,,,,,,,,,,,6,1,,,,,,,8,8,7,7,,,,,,,,,,,455.3742,455.8759,456.1268,459.3883,space,3.2539,,459.3883,5,50,460.392,460.392,460.6594,space,0.2395,,0,40,40,40,1,50,175,,,,,,,,
,,5edc60da1f4a2392b9f843ad,65af5546dc8991f4776b9ef6,2024-01-23_24h02.10.163,bars,2023.2.3,Win32,60.97560976,657b66ea316d21385b68909f,,,,,,,,,,,460.6598,461.6627,,,462.1658,462.4154,,47,227,,,,,,,,,,,,,,,,bars/000.png,bars/mask007.png,,,,,,,,,,,,8,1,,,,,,,10,6,10,7,,,,,,,,,,,461.6628,462.1657,462.4154,466.8814,space,4.4498,,466.8815,7,82,467.8847,467.8848,468.487,space,0.5792,,0,41,41,41,1,40,145,,,,,,,,
,,5edc60da1f4a2392b9f843ad,65af5546dc8991f4776b9ef6,2024-01-23_24h02.10.163,bars,2023.2.3,Win32,60.97560976,657b66ea316d21385b68909f,,,,,,,,,,,468.4876,469.4904,,,469.9926,470.243,,136,136,,,,,,,,,,,,,,,,bars/049.png,bars/mask006.png,,,,,,,,,,,,1,2,,,,,,,10,4,10,4,,,,,,,,,,,469.4904,469.9925,470.243,472.3511,space,2.1015,,472.3511,24,21,473.3545,473.3546,473.9731,space,0.588,,0,42,42,42,1,160,115,,,,,,,,
,,5edc60da1f4a2392b9f843ad,65af5546dc8991f4776b9ef6,2024-01-23_24h02.10.163,bars,2023.2.3,Win32,60.97560976,657b66ea316d21385b68909f,,,,,,,,,,,473.9735,474.9765,,,475.4788,475.7291,,3,183,,,,,,,,,,,,,,,,bars/010.png,bars/mask008.png,,,,,,,,,,,,3,1,,,,,,,8,6,7,7,,,,,,,,,,,474.9765,475.4788,475.7292,476.5824,space,0.8359,,476.5824,18,52,477.5857,477.5857,478.3222,space,0.7042,,0,43,43,43,1,165,55,,,,,,,,
,,5edc60da1f4a2392b9f843ad,65af5546dc8991f4776b9ef6,2024-01-23_24h02.10.163,bars,2023.2.3,Win32,60.97560976,657b66ea316d21385b68909f,,,,,,,,,,,478.3225,479.3252,,,479.8269,480.0778,,60,240,,,,,,,,,,,,,,,,bars/005.png,bars/mask004.png,,,,,,,,,,,,0,1,,,,,,,10,8,10,9,,,,,,,,,,,479.3252,479.8269,480.0778,483.7575,space,3.6492,,483.7575,50,80,484.761,484.761,485.2461,space,0.4642,,0,44,44,44,1,10,140,,,,,,,,
,,5edc60da1f4a2392b9f843ad,65af5546dc8991f4776b9ef6,2024-01-23_24h02.10.163,bars,2023.2.3,Win32,60.97560976,657b66ea316d21385b68909f,,,,,,,,,,,485.2467,486.25,,,486.7518,487.0026,,101,101,,,,,,,,,,,,,,,,bars/013.png,bars/mask001.png,,,,,,,,,,,,1,1,,,,,,,10,10,10,10,,,,,,,,,,,486.25,486.7517,487.0026,487.9225,space,0.9084,,487.9227,26,89,488.9257,488.9257,489.5634,space,0.6186,,0,45,45,45,1,75,10,,,,,,,,
,,5edc60da1f4a2392b9f843ad,65af5546dc8991f4776b9ef6,2024-01-23_24h02.10.163,bars,2023.2.3,Win32,60.97560976,657b66ea316d21385b68909f,,,,,,,,,,,489.5636,490.5648,,,491.0666,491.3179,,40,220,,,,,,,,,,,,,,,,bars/004.png,bars/mask009.png,,,,,,,,,,,,4,1,,,,,,,8,8,7,8,,,,,,,,,,,490.5649,491.0666,491.3179,495.934,space,4.5916,,495.934,15,85,496.9374,496.9374,497.5061,space,0.5417,,0,46,46,46,1,25,125,,,,,,,,
,,5edc60da1f4a2392b9f843ad,65af5546dc8991f4776b9ef6,2024-01-23_24h02.10.163,bars,2023.2.3,Win32,60.97560976,657b66ea316d21385b68909f,,,,,,,,,,,497.5065,498.5095,,,499.0116,499.2634,,97,97,,,,,,,,,,,,,,,,bars/022.png,bars/mask007.png,,,,,,,,,,,,9,1,,,,,,,10,10,10,10,,,,,,,,,,,498.5096,499.0116,499.2634,500.4502,space,1.1738,,500.4502,2,77,501.4548,501.4548,502.3232,space,0.8375,,0,47,47,47,1,95,20,,,,,,,,
,,5edc60da1f4a2392b9f843ad,65af5546dc8991f4776b9ef6,2024-01-23_24h02.10.163,bars,2023.2.3,Win32,60.97560976,657b66ea316d21385b68909f,,,,,,,,,,,502.3236,503.3266,,,503.8287,504.0795,,90,90,,,,,,,,,,,,,,,,bars/008.png,bars/mask009.png,,,,,,,,,,,,3,1,,,,,,,8,8,8,8,,,,,,,,,,,503.3267,503.8287,504.0795,506.1552,space,2.0735,,506.1552,20,90,507.1568,507.1568,507.1764,space,0.0007,,0,48,48,48,1,110,0,,,,,,,,
,,5edc60da1f4a2392b9f843ad,65af5546dc8991f4776b9ef6,2024-01-23_24h02.10.163,bars,2023.2.3,Win32,60.97560976,657b66ea316d21385b68909f,,,,,,,,,,,507.1766,508.1771,,,508.6792,508.9297,,113,113,,,,,,,,,,,,,,,,bars/008.png,bars/mask004.png,,,,,,,,,,,,9,1,,,,,,,10,6,10,6,,,,,,,,,,,508.1771,508.6792,508.9297,509.7494,space,0.798,,509.7495,3,67,510.7531,510.7531,511.0707,space,0.2856,,0,49,49,49,1,110,0,,,,,,,,
,,5edc60da1f4a2392b9f843ad,65af5546dc8991f4776b9ef6,2024-01-23_24h02.10.163,bars,2023.2.3,Win32,60.97560976,657b66ea316d21385b68909f,,,,,,,,,,,,,,,,,,,,,,,,,,,,,,,,,,,,,,,,,,,,,,,,,,,,,,,,,,,,,,,,,,,,,,,,,,,,,,,,,,,,,,,,,,,,,511.0713,571.0666,0,0,0,1,1,sequence_tables/blk029.csv
,,5edc60da1f4a2392b9f843ad,65af5546dc8991f4776b9ef6,2024-01-23_24h02.10.163,bars,2023.2.3,Win32,60.97560976,657b66ea316d21385b68909f,,,,,,,,,,,692.6212,693.6154,,,694.1174,694.3683,,48,48,,,,,,,,,,,,,,,,bars/047.png,bars/mask000.png,,,,,,,,,,,,2,2,,,,,,,5,5,5,6,,,,,,571.0731,692.612,space,121.517,,693.6155,694.1173,694.3684,701.2258,space,6.842,,701.2259,33,22,702.2295,702.2296,702.2367,,,,0,0,0,0,1,15,70,,,,,,,,
,,5edc60da1f4a2392b9f843ad,65af5546dc8991f4776b9ef6,2024-01-23_24h02.10.163,bars,2023.2.3,Win32,60.97560976,657b66ea316d21385b68909f,,,,,,,,,,,702.237,703.2331,,,703.7346,703.9853,,101,101,,,,,,,,,,,,,,,,bars/008.png,bars/mask006.png,,,,,,,,,,,,1,1,,,,,,,3,3,1,3,,,,,,,,,,,703.2331,703.7346,703.9854,705.9096,space,1.9221,,705.9096,9,79,706.9127,706.9128,706.9195,,,,0,1,1,1,1,110,0,,,,,,,,
,,5edc60da1f4a2392b9f843ad,65af5546dc8991f4776b9ef6,2024-01-23_24h02.10.163,bars,2023.2.3,Win32,60.97560976,657b66ea316d21385b68909f,,,,,,,,,,,706.9197,707.916,,,708.4178,708.6686,,44,44,,,,,,,,,,,,,,,,bars/034.png,bars/mask007.png,,,,,,,,,,,,2,2,,,,,,,1,5,2,7,,,,,,,,,,,707.916,708.4178,708.6686,710.3247,space,1.6411,,710.3248,81,21,711.3281,711.3281,711.3353,,,,0,2,2,2,1,125,65,,,,,,,,
,,5edc60da1f4a2392b9f843ad,65af5546dc8991f4776b9ef6,2024-01-23_24h02.10.163,bars,2023.2.3,Win32,60.97560976,657b66ea316d21385b68909f,,,,,,,,,,,711.3356,712.332,,,712.8339,713.0842,,56,56,,,,,,,,,,,,,,,,bars/000.png,bars/mask008.png,,,,,,,,,,,,0,1,,,,,,,0,7,0,9,,,,,,,,,,,712.332,712.8339,713.0842,714.9245,space,1.8259,,714.9246,16,89,715.928,715.928,715.9293,,,,0,3,3,3,1,40,145,,,,,,,,
,,5edc60da1f4a2392b9f843ad,65af5546dc8991f4776b9ef6,2024-01-23_24h02.10.163,bars,2023.2.3,Win32,60.97560976,657b66ea316d21385b68909f,,,,,,,,,,,715.9295,716.9311,,,717.4342,717.6842,,4,184,,,,,,,,,,,,,,,,bars/041.png,bars/mask005.png,,,,,,,,,,,,1,1,,,,,,,0,5,2,4,,,,,,,,,,,716.9311,717.4342,717.6842,719.8917,space,2.2047,,719.8917,16,81,720.8952,720.8952,720.9015,,,,0,4,4,4,1,20,85,,,,,,,,
,,5edc60da1f4a2392b9f843ad,65af5546dc8991f4776b9ef6,2024-01-23_24h02.10.163,bars,2023.2.3,Win32,60.97560976,657b66ea316d21385b68909f,,,,,,,,,,,720.9016,721.8986,,,722.4007,722.6529,,89,89,,,,,,,,,,,,,,,,bars/022.png,bars/mask006.png,,,,,,,,,,,,2,1,,,,,,,2,7,3,8,,,,,,,,,,,721.8987,722.4007,722.6529,724.4746,space,1.8123,,724.4747,6,69,725.4783,725.4784,725.4854,,,,0,5,5,5,1,95,20,,,,,,,,
,,5edc60da1f4a2392b9f843ad,65af5546dc8991f4776b9ef6,2024-01-23_24h02.10.163,bars,2023.2.3,Win32,60.97560976,657b66ea316d21385b68909f,,,,,,,,,,,725.4855,726.4819,,,726.9838,727.2343,,17,197,,,,,,,,,,,,,,,,bars/041.png,bars/mask005.png,,,,,,,,,,,,4,1,,,,,,,4,9,4,10,,,,,,,,,,,726.4819,726.9837,727.2343,731.5016,space,4.2495,,731.5016,3,68,732.5033,732.5033,732.5096,,,,0,6,6,6,1,20,85,,,,,,,,
,,5edc60da1f4a2392b9f843ad,65af5546dc8991f4776b9ef6,2024-01-23_24h02.10.163,bars,2023.2.3,Win32,60.97560976,657b66ea316d21385b68909f,,,,,,,,,,,732.5097,733.5074,,,734.0081,734.2604,,13,13,,,,,,,,,,,,,,,,bars/043.png,bars/mask003.png,,,,,,,,,,,,0,1,,,,,,,2,10,1,9,,,,,,,,,,,733.5074,734.0081,734.2605,737.7382,space,3.4522,,737.7382,17,63,738.742,738.742,738.7488,,,,0,7,7,7,1,30,130,,,,,,,,
,,5edc60da1f4a2392b9f843ad,65af5546dc8991f4776b9ef6,2024-01-23_24h02.10.163,bars,2023.2.3,Win32,60.97560976,657b66ea316d21385b68909f,,,,,,,,,,,738.7489,739.745,,,740.2472,740.498,,96,96,,,,,,,,,,,,,,,,bars/013.png,bars/mask002.png,,,,,,,,,,,,1,1,,,,,,,4,8,2,8,,,,,,,,,,,739.7451,740.2472,740.498,742.2039,space,1.7002,,742.2039,21,86,743.2073,743.2073,743.2135,,,,0,8,8,8,1,75,10,,,,,,,,
,,5edc60da1f4a2392b9f843ad,65af5546dc8991f4776b9ef6,2024-01-23_24h02.10.163,bars,2023.2.3,Win32,60.97560976,657b66ea316d21385b68909f,,,,,,,,,,,743.2137,744.2113,,,744.713,744.9639,,106,-74,,,,,,,,,,,,,,,,bars/045.png,bars/mask005.png,,,,,,,,,,,,6,1,,,,,,,6,6,7,7,,,,,,,,,,,744.2113,744.7129,744.9639,748.9611,space,3.9827,,748.9611,6,84,749.9648,749.9648,749.9718,,,,0,9,9,9,1,100,10,,,,,,,,
,,5edc60da1f4a2392b9f843ad,65af5546dc8991f4776b9ef6,2024-01-23_24h02.10.163,bars,2023.2.3,Win32,60.97560976,657b66ea316d21385b68909f,,,,,,,,,,,749.9719,750.9683,,,751.4699,751.7211,,33,213,,,,,,,,,,,,,,,,bars/005.png,bars/mask000.png,,,,,,,,,,,,1,1,,,,,,,4,4,3,6,,,,,,,,,,,750.9685,751.4698,751.7212,755.1329,space,3.3816,,755.1329,23,73,756.1363,756.1363,756.1434,,,,0,10,10,10,1,10,140,,,,,,,,
,,5edc60da1f4a2392b9f843ad,65af5546dc8991f4776b9ef6,2024-01-23_24h02.10.163,bars,2023.2.3,Win32,60.97560976,657b66ea316d21385b68909f,,,,,,,,,,,756.1435,757.1402,,,757.6421,757.8928,,41,221,,,,,,,,,,,,,,,,bars/019.png,bars/mask004.png,,,,,,,,,,,,5,1,,,,,,,6,6,6,8,,,,,,,,,,,757.1402,757.6421,757.8928,760.3537,space,2.443,,760.3538,4,64,761.355,761.3551,761.3613,,,,0,11,11,11,1,45,105,,,,,,,,
,,5edc60da1f4a2392b9f843ad,65af5546dc8991f4776b9ef6,2024-01-23_24h02.10.163,bars,2023.2.3,Win32,60.97560976,657b66ea316d21385b68909f,,,,,,,,,,,761.3615,762.3583,,,762.8601,763.1114,,84,84,,,,,,,,,,,,,,,,bars/022.png,bars/mask006.png,,,,,,,,,,,,5,1,,,,,,,8,8,8,7,,,,,,,,,,,762.3583,762.8601,763.1114,764.7356,space,1.6222,,764.7356,11,64,765.7369,765.7369,765.7377,,,,0,12,12,12,1,95,20,,,,,,,,
,,5edc60da1f4a2392b9f843ad,65af5546dc8991f4776b9ef6,2024-01-23_24h02.10.163,bars,2023.2.3,Win32,60.97560976,657b66ea316d21385b68909f,,,,,,,,,,,765.7378,766.7404,,,767.2426,767.493,,94,94,,,,,,,,,,,,,,,,bars/020.png,bars/mask000.png,,,,,,,,,,,,3,1,,,,,,,10,6,10,3,,,,,,,,,,,766.7404,767.2426,767.493,770.1359,space,2.6365,,770.1359,21,76,771.1398,771.1398,771.1459,,,,0,13,13,13,1,115,170,,,,,,,,
,,5edc60da1f4a2392b9f843ad,65af5546dc8991f4776b9ef6,2024-01-23_24h02.10.163,bars,2023.2.3,Win32,60.97560976,657b66ea316d21385b68909f,,,,,,,,,,,771.1461,772.143,,,772.6447,772.8956,,103,103,,,,,,,,,,,,,,,,bars/045.png,bars/mask003.png,,,,,,,,,,,,7,1,,,,,,,10,4,8,5,,,,,,,,,,,772.143,772.6447,772.8956,774.7857,space,1.8852,,774.7858,3,87,775.7895,775.7896,775.7966,,,,0,14,14,14,1,100,10,,,,,,,,
,,5edc60da1f4a2392b9f843ad,65af5546dc8991f4776b9ef6,2024-01-23_24h02.10.163,bars,2023.2.3,Win32,60.97560976,657b66ea316d21385b68909f,,,,,,,,,,,775.7969,776.793,,,777.295,777.5453,,58,58,,,,,,,,,,,,,,,,bars/048.png,bars/mask002.png,,,,,,,,,,,,7,1,,,,,,,10,6,10,5,,,,,,,,,,,776.793,777.2949,777.5453,779.2181,space,1.646,,779.2181,8,63,780.2214,780.2214,780.2221,,,,0,15,15,15,1,50,175,,,,,,,,
,,5edc60da1f4a2392b9f843ad,65af5546dc8991f4776b9ef6,2024-01-23_24h02.10.163,bars,2023.2.3,Win32,60.97560976,657b66ea316d21385b68909f,,,,,,,,,,,780.2224,781.2252,,,781.7268,781.9776,,116,116,,,,,,,,,,,,,,,,bars/025.png,bars/mask005.png,,,,,,,,,,,,6,1,,,,,,,10,8,10,9,,,,,,,,,,,781.2253,781.7268,781.9776,785.6407,space,3.6476,,785.6408,11,76,786.6441,786.6442,786.6511,,,,0,16,16,16,1,105,40,,,,,,,,
,,5edc60da1f4a2392b9f843ad,65af5546dc8991f4776b9ef6,2024-01-23_24h02.10.163,bars,2023.2.3,Win32,60.97560976,657b66ea316d21385b68909f,,,,,,,,,,,786.6513,787.6487,,,788.1494,788.4006,,101,101,,,,,,,,,,,,,,,,bars/020.png,bars/mask000.png,,,,,,,,,,,,4,1,,,,,,,8,10,8,8,,,,,,,,,,,787.6488,788.1494,788.4007,789.8556,space,1.4246,,789.8557,14,69,790.8594,790.8594,790.8658,,,,0,17,17,17,1,115,170,,,,,,,,
,,5edc60da1f4a2392b9f843ad,65af5546dc8991f4776b9ef6,2024-01-23_24h02.10.163,bars,2023.2.3,Win32,60.97560976,657b66ea316d21385b68909f,,,,,,,,,,,790.866,791.8625,,,792.3643,792.6155,,101,-79,,,,,,,,,,,,,,,,bars/025.png,bars/mask000.png,,,,,,,,,,,,3,1,,,,,,,6,8,4,9,,,,,,,,,,,791.8626,792.3642,792.6155,796.7318,space,4.0983,,796.7318,4,61,797.7338,797.7338,797.7399,,,,0,18,18,18,1,105,40,,,,,,,,
,,5edc60da1f4a2392b9f843ad,65af5546dc8991f4776b9ef6,2024-01-23_24h02.10.163,bars,2023.2.3,Win32,60.97560976,657b66ea316d21385b68909f,,,,,,,,,,,797.7401,798.7368,,,799.2387,799.4895,,70,70,,,,,,,,,,,,,,,,bars/014.png,bars/mask008.png,,,,,,,,,,,,3,1,,,,,,,4,6,5,5,,,,,,,,,,,798.7368,799.2386,799.4895,800.5266,space,1.0141,,800.5267,10,70,801.53,801.5301,801.5308,,,,0,19,19,19,1,80,0,,,,,,,,
,,5edc60da1f4a2392b9f843ad,65af5546dc8991f4776b9ef6,2024-01-23_24h02.10.163,bars,2023.2.3,Win32,60.97560976,657b66ea316d21385b68909f,,,,,,,,,,,801.5311,802.5335,,,803.0353,803.2861,,39,39,,,,,,,,,,,,,,,,bars/046.png,bars/mask004.png,,,,,,,,,,,,0,2,,,,,,,6,8,7,9,,,,,,,,,,,802.5335,803.0353,803.2861,806.1297,space,2.8119,,806.1297,64,46,807.1335,807.1335,807.1403,,,,0,20,20,20,1,155,85,,,,,,,,
,,5edc60da1f4a2392b9f843ad,65af5546dc8991f4776b9ef6,2024-01-23_24h02.10.163,bars,2023.2.3,Win32,60.97560976,657b66ea316d21385b68909f,,,,,,,,,,,807.1404,808.1367,,,808.6389,808.8893,,171,-9,,,,,,,,,,,,,,,,bars/039.png,bars/mask006.png,,,,,,,,,,,,4,1,,,,,,,4,10,5,10,,,,,,,,,,,808.1367,808.6388,808.8894,811.3816,space,2.4769,,811.3816,4,66,812.3852,812.3853,812.392,,,,0,21,21,21,1,175,105,,,,,,,,
,,5edc60da1f4a2392b9f843ad,65af5546dc8991f4776b9ef6,2024-01-23_24h02.10.163,bars,2023.2.3,Win32,60.97560976,657b66ea316d21385b68909f,,,,,,,,,,,812.3922,813.3889,,,813.8905,814.1412,,25,205,,,,,,,,,,,,,,,,bars/006.png,bars/mask000.png,,,,,,,,,,,,1,1,,,,,,,2,8,2,10,,,,,,,,,,,813.3889,813.8905,814.1413,817.2541,space,3.1107,,817.2541,10,75,818.2569,818.257,818.2631,,,,0,22,22,22,1,35,100,,,,,,,,
,,5edc60da1f4a2392b9f843ad,65af5546dc8991f4776b9ef6,2024-01-23_24h02.10.163,bars,2023.2.3,Win32,60.97560976,657b66ea316d21385b68909f,,,,,,,,,,,818.2633,819.2593,,,819.7612,820.0124,,131,131,,,,,,,,,,,,,,,,bars/037.png,bars/mask002.png,,,,,,,,,,,,0,1,,,,,,,0,6,0,6,,,,,,,,,,,819.2593,819.7611,820.0124,823.9096,space,3.8657,,823.9096,19,26,824.9126,824.9126,824.9188,,,,0,23,23,23,1,150,105,,,,,,,,
,,5edc60da1f4a2392b9f843ad,65af5546dc8991f4776b9ef6,2024-01-23_24h02.10.163,bars,2023.2.3,Win32,60.97560976,657b66ea316d21385b68909f,,,,,,,,,,,824.919,825.9161,,,826.4182,826.6689,,106,-74,,,,,,,,,,,,,,,,bars/032.png,bars/mask003.png,,,,,,,,,,,,1,1,,,,,,,2,8,2,9,,,,,,,,,,,825.9162,826.4181,826.6689,830.2317,space,3.538,,830.2317,19,86,831.2349,831.2349,831.2414,,,,0,24,24,24,1,125,20,,,,,,,,
,,5edc60da1f4a2392b9f843ad,65af5546dc8991f4776b9ef6,2024-01-23_24h02.10.163,bars,2023.2.3,Win32,60.97560976,657b66ea316d21385b68909f,,,,,,,,,,,831.2415,832.2386,,,832.7406,832.9915,,1,1,,,,,,,,,,,,,,,,bars/035.png,bars/mask003.png,,,,,,,,,,,,0,1,,,,,,,0,10,0,10,,,,,,,,,,,832.2387,832.7405,832.9915,834.7989,space,1.7903,,834.7989,6,59,835.801,835.8011,835.8075,,,,0,25,25,25,1,175,60,,,,,,,,
,,5edc60da1f4a2392b9f843ad,65af5546dc8991f4776b9ef6,2024-01-23_24h02.10.163,bars,2023.2.3,Win32,60.97560976,657b66ea316d21385b68909f,,,,,,,,,,,835.8076,836.8051,,,837.3065,837.5572,,10,190,,,,,,,,,,,,,,,,bars/033.png,bars/mask008.png,,,,,,,,,,,,0,1,,,,,,,0,8,0,9,,,,,,,,,,,836.8051,837.3065,837.5572,840.6521,space,3.0631,,840.6521,15,35,841.6552,841.6552,841.6619,,,,0,26,26,26,1,25,155,,,,,,,,
,,5edc60da1f4a2392b9f843ad,65af5546dc8991f4776b9ef6,2024-01-23_24h02.10.163,bars,2023.2.3,Win32,60.97560976,657b66ea316d21385b68909f,,,,,,,,,,,841.662,842.6601,,,843.1608,843.4113,,12,192,,,,,,,,,,,,,,,,bars/005.png,bars/mask003.png,,,,,,,,,,,,3,1,,,,,,,0,6,3,5,,,,,,,,,,,842.6601,843.1608,843.4113,845.017,space,1.5756,,845.0171,2,52,846.0204,846.0206,846.0214,,,,0,27,27,27,1,10,140,,,,,,,,
,,5edc60da1f4a2392b9f843ad,65af5546dc8991f4776b9ef6,2024-01-23_24h02.10.163,bars,2023.2.3,Win32,60.97560976,657b66ea316d21385b68909f,,,,,,,,,,,846.0216,847.0241,,,847.5267,847.778,,138,138,,,,,,,,,,,,,,,,bars/030.png,bars/mask001.png,,,,,,,,,,,,1,1,,,,,,,0,8,1,8,,,,,,,,,,,847.0241,847.5266,847.778,850.2694,space,2.4755,,850.2694,2,73,851.2728,851.2728,851.279,,,,0,28,28,28,1,140,65,,,,,,,,
,,5edc60da1f4a2392b9f843ad,65af5546dc8991f4776b9ef6,2024-01-23_24h02.10.163,bars,2023.2.3,Win32,60.97560976,657b66ea316d21385b68909f,,,,,,,,,,,851.2792,852.2759,,,852.7781,853.0298,,21,21,,,,,,,,,,,,,,,,bars/023.png,bars/mask005.png,,,,,,,,,,,,2,1,,,,,,,0,6,2,8,,,,,,,,,,,852.2759,852.778,853.0298,854.2334,space,1.1871,,854.2334,1,86,855.2364,855.2364,855.2427,,,,0,29,29,29,1,20,115,,,,,,,,
,,5edc60da1f4a2392b9f843ad,65af5546dc8991f4776b9ef6,2024-01-23_24h02.10.163,bars,2023.2.3,Win32,60.97560976,657b66ea316d21385b68909f,,,,,,,,,,,855.2428,856.2409,,,856.7421,856.993,,96,-84,,,,,,,,,,,,,,,,bars/025.png,bars/mask007.png,,,,,,,,,,,,0,1,,,,,,,0,8,0,7,,,,,,,,,,,856.2409,856.7421,856.993,861.2747,space,4.2682,,861.2748,9,56,862.2779,862.278,862.2842,,,,0,30,30,30,1,105,40,,,,,,,,
,,5edc60da1f4a2392b9f843ad,65af5546dc8991f4776b9ef6,2024-01-23_24h02.10.163,bars,2023.2.3,Win32,60.97560976,657b66ea316d21385b68909f,,,,,,,,,,,862.2842,863.2818,,,863.7848,864.0341,,153,-27,,,,,,,,,,,,,,,,bars/038.png,bars/mask002.png,,,,,,,,,,,,0,1,,,,,,,2,10,0,10,,,,,,,,,,,863.2818,863.7848,864.0342,866.0606,space,2.0085,,866.0606,12,83,867.0615,867.0616,867.0681,,,,0,31,31,31,1,165,70,,,,,,,,
,,5edc60da1f4a2392b9f843ad,65af5546dc8991f4776b9ef6,2024-01-23_24h02.10.163,bars,2023.2.3,Win32,60.97560976,657b66ea316d21385b68909f,,,,,,,,,,,867.0682,868.0653,,,868.5668,868.818,,119,119,,,,,,,,,,,,,,,,bars/002.png,bars/mask009.png,,,,,,,,,,,,3,1,,,,,,,4,10,5,9,,,,,,,,,,,868.0654,868.5668,868.8181,871.1929,space,2.3515,,871.1929,11,34,872.1963,872.1963,872.2025,,,,0,32,32,32,1,130,85,,,,,,,,
,,5edc60da1f4a2392b9f843ad,65af5546dc8991f4776b9ef6,2024-01-23_24h02.10.163,bars,2023.2.3,Win32,60.97560976,657b66ea316d21385b68909f,,,,,,,,,,,872.2027,873.1999,,,873.7027,873.953,,18,198,,,,,,,,,,,,,,,,bars/047.png,bars/mask001.png,,,,,,,,,,,,6,1,,,,,,,6,8,7,8,,,,,,,,,,,873.1999,873.7027,873.9531,878.3372,space,4.3665,,878.3372,3,52,879.3382,879.3382,879.3445,,,,0,33,33,33,1,15,70,,,,,,,,
,,5edc60da1f4a2392b9f843ad,65af5546dc8991f4776b9ef6,2024-01-23_24h02.10.163,bars,2023.2.3,Win32,60.97560976,657b66ea316d21385b68909f,,,,,,,,,,,879.3447,880.3421,,,880.8439,881.0948,,24,24,,,,,,,,,,,,,,,,bars/023.png,bars/mask002.png,,,,,,,,,,,,3,1,,,,,,,4,6,4,7,,,,,,,,,,,880.3421,880.8439,881.0948,882.4996,space,1.3964,,882.4997,4,89,883.5041,883.5042,883.5105,,,,0,34,34,34,1,20,115,,,,,,,,
,,5edc60da1f4a2392b9f843ad,65af5546dc8991f4776b9ef6,2024-01-23_24h02.10.163,bars,2023.2.3,Win32,60.97560976,657b66ea316d21385b68909f,,,,,,,,,,,883.5107,884.5063,,,885.0084,885.2594,,154,-26,,,,,,,,,,,,,,,,bars/039.png,bars/mask000.png,,,,,,,,,,,,2,1,,,,,,,6,8,6,7,,,,,,,,,,,884.5064,885.0083,885.2594,888.0528,space,2.7656,,888.0529,21,49,889.0559,889.0559,889.0628,,,,0,35,35,35,1,175,105,,,,,,,,
,,5edc60da1f4a2392b9f843ad,65af5546dc8991f4776b9ef6,2024-01-23_24h02.10.163,bars,2023.2.3,Win32,60.97560976,657b66ea316d21385b68909f,,,,,,,,,,,889.0629,890.0594,,,890.5613,890.8121,,29,29,,,,,,,,,,,,,,,,bars/006.png,bars/mask008.png,,,,,,,,,,,,6,1,,,,,,,8,10,7,9,,,,,,,,,,,890.0595,890.5612,890.8121,891.699,space,0.8727,,891.699,6,71,892.7022,892.7022,892.7029,,,,0,36,36,36,1,35,100,,,,,,,,
,,5edc60da1f4a2392b9f843ad,65af5546dc8991f4776b9ef6,2024-01-23_24h02.10.163,bars,2023.2.3,Win32,60.97560976,657b66ea316d21385b68909f,,,,,,,,,,,892.7031,893.7059,,,894.2076,894.4584,,22,202,,,,,,,,,,,,,,,,bars/033.png,bars/mask006.png,,,,,,,,,,,,8,1,,,,,,,10,10,9,10,,,,,,,,,,,893.7059,894.2075,894.4584,897.8727,space,3.3966,,897.8727,3,47,898.8739,898.874,898.8803,,,,0,37,37,37,1,25,155,,,,,,,,
,,5edc60da1f4a2392b9f843ad,65af5546dc8991f4776b9ef6,2024-01-23_24h02.10.163,bars,2023.2.3,Win32,60.97560976,657b66ea316d21385b68909f,,,,,,,,,,,898.8805,899.8786,,,900.3792,900.6304,,46,46,,,,,,,,,,,,,,,,bars/000.png,bars/mask005.png,,,,,,,,,,,,8,1,,,,,,,10,8,10,8,,,,,,,,,,,899.8786,900.3792,900.6304,902.9886,space,2.3512,,902.9886,6,81,903.992,903.992,903.9988,,,,0,38,38,38,1,40,145,,,,,,,,
,,5edc60da1f4a2392b9f843ad,65af5546dc8991f4776b9ef6,2024-01-23_24h02.10.163,bars,2023.2.3,Win32,60.97560976,657b66ea316d21385b68909f,,,,,,,,,,,903.9989,904.9954,,,905.4974,905.7496,,94,94,,,,,,,,,,,,,,,,bars/014.png,bars/mask005.png,,,,,,,,,,,,5,1,,,,,,,10,10,10,9,,,,,,,,,,,904.9954,905.4973,905.7496,907.7053,space,1.9378,,907.7053,14,86,908.7089,908.709,908.7096,,,,0,39,39,39,1,80,0,,,,,,,,
,,5edc60da1f4a2392b9f843ad,65af5546dc8991f4776b9ef6,2024-01-23_24h02.10.163,bars,2023.2.3,Win32,60.97560976,657b66ea316d21385b68909f,,,,,,,,,,,908.7099,909.7126,,,910.2139,910.4648,,141,141,,,,,,,,,,,,,,,,bars/046.png,bars/mask002.png,,,,,,,,,,,,5,1,,,,,,,10,8,9,8,,,,,,,,,,,909.7126,910.2139,910.4649,912.4388,space,1.9585,,912.4388,14,56,913.4434,913.4435,913.4496,,,,0,40,40,40,1,155,85,,,,,,,,
,,5edc60da1f4a2392b9f843ad,65af5546dc8991f4776b9ef6,2024-01-23_24h02.10.163,bars,2023.2.3,Win32,60.97560976,657b66ea316d21385b68909f,,,,,,,,,,,913.4498,914.4455,,,914.9474,915.1982,,59,239,,,,,,,,,,,,,,,,bars/048.png,bars/mask000.png,,,,,,,,,,,,5,1,,,,,,,8,6,7,7,,,,,,,,,,,914.4456,914.9474,915.1983,920.2332,space,5.0284,,920.2332,9,64,921.2362,921.2363,921.2431,,,,0,41,41,41,1,50,175,,,,,,,,
,,5edc60da1f4a2392b9f843ad,65af5546dc8991f4776b9ef6,2024-01-23_24h02.10.163,bars,2023.2.3,Win32,60.97560976,657b66ea316d21385b68909f,,,,,,,,,,,921.2433,922.2397,,,922.7415,922.9933,,164,164,,,,,,,,,,,,,,,,bars/018.png,bars/mask007.png,,,,,,,,,,,,5,1,,,,,,,10,4,10,3,,,,,,,,,,,922.2399,922.7415,922.9933,926.4552,space,3.4504,,926.4552,14,74,927.4596,927.4596,927.4658,,,,0,42,42,42,1,150,90,,,,,,,,
,,5edc60da1f4a2392b9f843ad,65af5546dc8991f4776b9ef6,2024-01-23_24h02.10.163,bars,2023.2.3,Win32,60.97560976,657b66ea316d21385b68909f,,,,,,,,,,,927.466,928.4621,,,928.9639,929.2148,,101,101,,,,,,,,,,,,,,,,bars/025.png,bars/mask004.png,,,,,,,,,,,,9,1,,,,,,,10,6,10,6,,,,,,,,,,,928.4621,928.9639,929.2148,931.8591,space,2.6264,,931.8591,4,61,932.8606,932.8607,932.8677,,,,0,43,43,43,1,105,40,,,,,,,,
,,5edc60da1f4a2392b9f843ad,65af5546dc8991f4776b9ef6,2024-01-23_24h02.10.163,bars,2023.2.3,Win32,60.97560976,657b66ea316d21385b68909f,,,,,,,,,,,932.8679,933.8646,,,934.366,934.6168,,30,210,,,,,,,,,,,,,,,,bars/016.png,bars/mask003.png,,,,,,,,,,,,6,1,,,,,,,10,4,9,5,,,,,,,,,,,933.8646,934.3659,934.6168,937.8287,space,3.1872,,937.8287,10,45,938.832,938.8321,938.8383,,,,0,44,44,44,1,40,165,,,,,,,,
,,5edc60da1f4a2392b9f843ad,65af5546dc8991f4776b9ef6,2024-01-23_24h02.10.163,bars,2023.2.3,Win32,60.97560976,657b66ea316d21385b68909f,,,,,,,,,,,938.8384,939.8352,,,940.3369,940.5879,,150,150,,,,,,,,,,,,,,,,bars/007.png,bars/mask005.png,,,,,,,,,,,,1,1,,,,,,,8,2,7,0,,,,,,,,,,,939.8353,940.3369,940.5879,942.4948,space,1.8748,,942.4949,25,85,943.4985,943.4985,943.5049,,,,0,45,45,45,1,175,55,,,,,,,,
,,5edc60da1f4a2392b9f843ad,65af5546dc8991f4776b9ef6,2024-01-23_24h02.10.163,bars,2023.2.3,Win32,60.97560976,657b66ea316d21385b68909f,,,,,,,,,,,943.5051,944.5017,,,945.004,945.2547,,131,131,,,,,,,,,,,,,,,,bars/037.png,bars/mask006.png,,,,,,,,,,,,1,1,,,,,,,6,4,4,4,,,,,,,,,,,944.5017,945.004,945.2547,947.3451,space,2.0594,,947.3451,19,26,948.3486,948.3486,948.3552,,,,0,46,46,46,1,150,105,,,,,,,,
,,5edc60da1f4a2392b9f843ad,65af5546dc8991f4776b9ef6,2024-01-23_24h02.10.163,bars,2023.2.3,Win32,60.97560976,657b66ea316d21385b68909f,,,,,,,,,,,948.3554,949.3522,,,949.854,950.1051,,119,119,,,,,,,,,,,,,,,,bars/030.png,bars/mask006.png,,,,,,,,,,,,3,1,,,,,,,8,2,9,1,,,,,,,,,,,949.3522,949.8539,950.1051,952.8821,space,2.7454,,952.8821,21,54,953.8854,953.8854,953.8924,,,,0,47,47,47,1,140,65,,,,,,,,
,,5edc60da1f4a2392b9f843ad,65af5546dc8991f4776b9ef6,2024-01-23_24h02.10.163,bars,2023.2.3,Win32,60.97560976,657b66ea316d21385b68909f,,,,,,,,,,,953.8925,954.8888,,,955.3905,955.641,,158,-22,,,,,,,,,,,,,,,,bars/049.png,bars/mask007.png,,,,,,,,,,,,9,1,,,,,,,10,0,10,0,,,,,,,,,,,954.8889,955.3903,955.6411,958.3677,space,2.7182,,958.3678,2,43,959.3709,959.371,959.3771,,,,0,48,48,48,1,160,115,,,,,,,,
,,5edc60da1f4a2392b9f843ad,65af5546dc8991f4776b9ef6,2024-01-23_24h02.10.163,bars,2023.2.3,Win32,60.97560976,657b66ea316d21385b68909f,,,,,,,,,,,959.3773,960.3745,,,960.8763,961.1275,,121,-59,,,,,,,,,,,,,,,,bars/031.png,bars/mask005.png,,,,,,,,,,,,10,1,,,,,,,10,2,10,3,,,,,,,,,,,960.3745,960.8763,961.1275,965.0579,space,3.9167,,965.0579,1,86,966.0612,966.0613,966.0679,,,,0,49,49,49,1,120,35,,,,,,,,
,,5edc60da1f4a2392b9f843ad,65af5546dc8991f4776b9ef6,2024-01-23_24h02.10.163,bars,2023.2.3,Win32,60.97560976,657b66ea316d21385b68909f,,,,,,,,,,,,,,,,,,,,,,,,,,,,,,,,,,,,,,,,,,,,,,,,,,,,,,,,,,,,,,,,,,,,,,,,,,,,,,,,,,,,,,,,,,,,,966.068,1026.0564,0,1,1,4,1,sequence_tables/blk024.csv
,,5edc60da1f4a2392b9f843ad,65af5546dc8991f4776b9ef6,2024-01-23_24h02.10.163,bars,2023.2.3,Win32,60.97560976,657b66ea316d21385b68909f,,,,,,,,,,,1227.23,1228.2206,,,1228.7225,1228.9733,,136,-44,,,,,,,,,,,,,,,,bars/038.png,bars/mask000.png,,,,,,,,,,,,0,1,,,,,,,2,7,0,6,,,,,,1026.0632,1227.2192,space,201.144,,1228.2206,1228.7225,1228.9733,1243.5917,space,14.6055,,1243.5917,29,66,1244.5955,1244.5955,1244.602,,,,0,0,0,0,1,165,70,,,,,,,,
,,5edc60da1f4a2392b9f843ad,65af5546dc8991f4776b9ef6,2024-01-23_24h02.10.163,bars,2023.2.3,Win32,60.97560976,657b66ea316d21385b68909f,,,,,,,,,,,1244.6023,1245.6002,,,1246.1008,1246.3513,,161,-19,,,,,,,,,,,,,,,,bars/049.png,bars/mask005.png,,,,,,,,,,,,1,1,,,,,,,0,9,1,10,,,,,,,,,,,1245.6002,1246.1008,1246.3513,1282.2781,space,35.9107,,1282.2782,1,46,1283.2816,1283.2816,1283.2892,,,,0,1,1,1,1,160,115,,,,,,,,
,,5edc60da1f4a2392b9f843ad,65af5546dc8991f4776b9ef6,2024-01-23_24h02.10.163,bars,2023.2.3,Win32,60.97560976,657b66ea316d21385b68909f,,,,,,,,,,,1283.2893,1284.2863,,,1284.787,1285.0378,,47,47,,,,,,,,,,,,,,,,bars/026.png,bars/mask009.png,,,,,,,,,,,,1,1,,,,,,,0,7,1,7,,,,,,,,,,,1284.2863,1284.7869,1285.0379,1287.5653,space,2.5258,,1287.5653,12,38,1288.5671,1288.5672,1288.5745,,,,0,2,2,2,1,35,85,,,,,,,,
,,5edc60da1f4a2392b9f843ad,65af5546dc8991f4776b9ef6,2024-01-23_24h02.10.163,bars,2023.2.3,Win32,60.97560976,657b66ea316d21385b68909f,,,,,,,,,,,1288.5748,1289.5704,,,1290.0723,1290.3235,,144,144,,,,,,,,,,,,,,,,bars/041.png,bars/mask009.png,,,,,,,,,,,,0,1,,,,,,,2,9,1,9,,,,,,,,,,,1289.5705,1290.0723,1290.3235,1320.1453,space,29.7916,,1320.1454,56,59,1321.1488,1321.1488,1321.1553,,,,0,3,3,3,1,20,85,,,,,,,,
,,5edc60da1f4a2392b9f843ad,65af5546dc8991f4776b9ef6,2024-01-23_24h02.10.163,bars,2023.2.3,Win32,60.97560976,657b66ea316d21385b68909f,,,,,,,,,,,1321.1555,1322.1523,,,1322.6544,1322.9052,,131,131,,,,,,,,,,,,,,,,bars/024.png,bars/mask000.png,,,,,,,,,,,,3,1,,,,,,,4,10,4,10,,,,,,,,,,,1322.1523,1322.6544,1322.9052,1324.6111,space,1.6765,,1324.6111,11,39,1325.6149,1325.615,1325.6212,,,,0,4,4,4,1,120,170,,,,,,,,
,,5edc60da1f4a2392b9f843ad,65af5546dc8991f4776b9ef6,2024-01-23_24h02.10.163,bars,2023.2.3,Win32,60.97560976,657b66ea316d21385b68909f,,,,,,,,,,,1325.6214,1326.6183,,,1327.1203,1327.3711,,55,235,,,,,,,,,,,,,,,,bars/028.png,bars/mask003.png,,,,,,,,,,,,0,1,,,,,,,2,10,0,10,,,,,,,,,,,1326.6183,1327.1202,1327.3711,1331.3515,space,3.9573,,1331.3515,10,65,1332.3549,1332.3549,1332.3611,,,,0,5,5,5,1,45,120,,,,,,,,
,,5edc60da1f4a2392b9f843ad,65af5546dc8991f4776b9ef6,2024-01-23_24h02.10.163,bars,2023.2.3,Win32,60.97560976,657b66ea316d21385b68909f,,,,,,,,,,,1332.3612,1333.3589,,,1333.8603,1334.1115,,177,177,,,,,,,,,,,,,,,,bars/035.png,bars/mask007.png,,,,,,,,,,,,5,1,,,,,,,4,10,5,9,,,,,,,,,,,1333.3589,1333.8603,1334.1115,1338.562,space,4.4327,,1338.5621,2,63,1339.5637,1339.5637,1339.5706,,,,0,6,6,6,1,175,60,,,,,,,,
,,5edc60da1f4a2392b9f843ad,65af5546dc8991f4776b9ef6,2024-01-23_24h02.10.163,bars,2023.2.3,Win32,60.97560976,657b66ea316d21385b68909f,,,,,,,,,,,1339.5708,1340.5673,,,1341.069,1341.3203,,144,144,,,,,,,,,,,,,,,,bars/038.png,bars/mask006.png,,,,,,,,,,,,1,1,,,,,,,2,8,2,8,,,,,,,,,,,1340.5673,1341.069,1341.3203,1345.0015,space,3.6636,,1345.0016,21,74,1346.0032,1346.0032,1346.0092,,,,0,7,7,7,1,165,70,,,,,,,,
,,5edc60da1f4a2392b9f843ad,65af5546dc8991f4776b9ef6,2024-01-23_24h02.10.163,bars,2023.2.3,Win32,60.97560976,657b66ea316d21385b68909f,,,,,,,,,,,1346.0094,1347.0067,,,1347.5085,1347.7597,,86,86,,,,,,,,,,,,,,,,bars/029.png,bars/mask009.png,,,,,,,,,,,,0,1,,,,,,,0,10,0,10,,,,,,,,,,,1347.0067,1347.5085,1347.7597,1350.9222,space,3.1448,,1350.9223,4,41,1351.9246,1351.9246,1351.9313,,,,0,8,8,8,1,90,45,,,,,,,,
,,5edc60da1f4a2392b9f843ad,65af5546dc8991f4776b9ef6,2024-01-23_24h02.10.163,bars,2023.2.3,Win32,60.97560976,657b66ea316d21385b68909f,,,,,,,,,,,1351.9315,1352.9281,,,1353.4296,1353.6802,,40,40,,,,,,,,,,,,,,,,bars/016.png,bars/mask005.png,,,,,,,,,,,,2,1,,,,,,,2,8,2,8,,,,,,,,,,,1352.9282,1353.4296,1353.6803,1356.1056,space,2.3985,,1356.1057,0,55,1357.1091,1357.1091,1357.1097,,,,0,9,9,9,1,40,165,,,,,,,,
,,5edc60da1f4a2392b9f843ad,65af5546dc8991f4776b9ef6,2024-01-23_24h02.10.163,bars,2023.2.3,Win32,60.97560976,657b66ea316d21385b68909f,,,,,,,,,,,1357.1099,1358.1129,,,1358.6158,1358.8653,,157,157,,,,,,,,,,,,,,,,bars/035.png,bars/mask003.png,,,,,,,,,,,,0,1,,,,,,,0,10,0,10,,,,,,,,,,,1358.113,1358.6158,1358.8653,1360.6888,space,1.7944,,1360.6888,18,83,1361.6922,1361.6923,1361.6987,,,,0,10,10,10,1,175,60,,,,,,,,
,,5edc60da1f4a2392b9f843ad,65af5546dc8991f4776b9ef6,2024-01-23_24h02.10.163,bars,2023.2.3,Win32,60.97560976,657b66ea316d21385b68909f,,,,,,,,,,,1361.6988,1362.6955,,,1363.1973,1363.4481,,33,213,,,,,,,,,,,,,,,,bars/006.png,bars/mask002.png,,,,,,,,,,,,1,1,,,,,,,0,8,1,8,,,,,,,,,,,1362.6955,1363.1972,1363.4481,1367.849,space,4.3827,,1367.8491,2,67,1368.8509,1368.851,1368.8571,,,,0,11,11,11,1,35,100,,,,,,,,
,,5edc60da1f4a2392b9f843ad,65af5546dc8991f4776b9ef6,2024-01-23_24h02.10.163,bars,2023.2.3,Win32,60.97560976,657b66ea316d21385b68909f,,,,,,,,,,,1368.8572,1369.8541,,,1370.3559,1370.6067,,129,129,,,,,,,,,,,,,,,,bars/010.png,bars/mask001.png,,,,,,,,,,,,0,1,,,,,,,0,6,1,5,,,,,,,,,,,1369.8542,1370.3559,1370.6068,1374.488,space,3.864,,1374.488,36,74,1375.4908,1375.4908,1375.4972,,,,0,12,12,12,1,165,55,,,,,,,,
,,5edc60da1f4a2392b9f843ad,65af5546dc8991f4776b9ef6,2024-01-23_24h02.10.163,bars,2023.2.3,Win32,60.97560976,657b66ea316d21385b68909f,,,,,,,,,,,1375.4973,1376.4946,,,1376.9961,1377.2469,,163,163,,,,,,,,,,,,,,,,bars/009.png,bars/mask005.png,,,,,,,,,,,,0,1,,,,,,,2,4,3,2,,,,,,,,,,,1376.4946,1376.996,1377.2469,1381.0605,space,3.7933,,1381.0605,32,58,1382.0642,1382.0642,1382.0706,,,,0,13,13,13,1,15,105,,,,,,,,
,,5edc60da1f4a2392b9f843ad,65af5546dc8991f4776b9ef6,2024-01-23_24h02.10.163,bars,2023.2.3,Win32,60.97560976,657b66ea316d21385b68909f,,,,,,,,,,,1382.0708,1383.0677,,,1383.5694,1383.8204,,47,47,,,,,,,,,,,,,,,,bars/026.png,bars/mask000.png,,,,,,,,,,,,0,1,,,,,,,0,2,0,1,,,,,,,,,,,1383.0677,1383.5693,1383.8204,1386.0965,space,2.2581,,1386.0965,12,38,1387.0986,1387.0987,1387.0992,,,,0,14,14,14,1,35,85,,,,,,,,
,,5edc60da1f4a2392b9f843ad,65af5546dc8991f4776b9ef6,2024-01-23_24h02.10.163,bars,2023.2.3,Win32,60.97560976,657b66ea316d21385b68909f,,,,,,,,,,,1387.0994,1388.1021,,,1388.6037,1388.855,,54,234,,,,,,,,,,,,,,,,bars/016.png,bars/mask006.png,,,,,,,,,,,,1,1,,,,,,,2,0,2,1,,,,,,,,,,,1388.1022,1388.6036,1388.855,1393.1045,space,4.2321,,1393.1045,14,69,1394.1064,1394.1064,1394.1128,,,,0,15,15,15,1,40,165,,,,,,,,
,,5edc60da1f4a2392b9f843ad,65af5546dc8991f4776b9ef6,2024-01-23_24h02.10.163,bars,2023.2.3,Win32,60.97560976,657b66ea316d21385b68909f,,,,,,,,,,,1394.1129,1395.1103,,,1395.6121,1395.8629,,43,43,,,,,,,,,,,,,,,,bars/003.png,bars/mask001.png,,,,,,,,,,,,0,1,,,,,,,0,2,0,3,,,,,,,,,,,1395.1103,1395.6121,1395.8629,1396.6994,space,0.8143,,1396.6994,18,83,1397.7028,1397.7028,1397.7034,,,,0,16,16,16,1,25,140,,,,,,,,
,,5edc60da1f4a2392b9f843ad,65af5546dc8991f4776b9ef6,2024-01-23_24h02.10.163,bars,2023.2.3,Win32,60.97560976,657b66ea316d21385b68909f,,,,,,,,,,,1397.7036,1398.706,,,1399.2081,1399.4589,,45,225,,,,,,,,,,,,,,,,bars/026.png,bars/mask003.png,,,,,,,,,,,,1,1,,,,,,,2,0,2,0,,,,,,,,,,,1398.706,1399.2081,1399.4589,1403.3559,space,3.8706,,1403.356,10,40,1404.3593,1404.3593,1404.3654,,,,0,17,17,17,1,35,85,,,,,,,,
,,5edc60da1f4a2392b9f843ad,65af5546dc8991f4776b9ef6,2024-01-23_24h02.10.163,bars,2023.2.3,Win32,60.97560976,657b66ea316d21385b68909f,,,,,,,,,,,1404.3655,1405.3629,,,1405.8647,1406.1156,,77,77,,,,,,,,,,,,,,,,bars/044.png,bars/mask001.png,,,,,,,,,,,,5,1,,,,,,,4,2,5,1,,,,,,,,,,,1405.3629,1405.8646,1406.1157,1408.3754,space,2.2421,,1408.3755,2,78,1409.3771,1409.3772,1409.3779,,,,0,18,18,18,1,75,155,,,,,,,,
,,5edc60da1f4a2392b9f843ad,65af5546dc8991f4776b9ef6,2024-01-23_24h02.10.163,bars,2023.2.3,Win32,60.97560976,657b66ea316d21385b68909f,,,,,,,,,,,1409.3781,1410.3809,,,1410.8827,1411.1333,,124,-56,,,,,,,,,,,,,,,,bars/017.png,bars/mask002.png,,,,,,,,,,,,1,1,,,,,,,2,4,3,5,,,,,,,,,,,1410.3809,1410.8827,1411.1334,1414.9985,space,3.847,,1414.9985,21,79,1416.0005,1416.0005,1416.0068,,,,0,19,19,19,1,145,45,,,,,,,,
,,5edc60da1f4a2392b9f843ad,65af5546dc8991f4776b9ef6,2024-01-23_24h02.10.163,bars,2023.2.3,Win32,60.97560976,657b66ea316d21385b68909f,,,,,,,,,,,1416.0069,1417.0043,,,1417.5057,1417.757,,149,149,,,,,,,,,,,,,,,,bars/037.png,bars/mask009.png,,,,,,,,,,,,4,1,,,,,,,4,6,4,8,,,,,,,,,,,1417.0044,1417.5057,1417.7571,1419.5631,space,1.7808,,1419.5632,1,44,1420.5667,1420.5667,1420.5735,,,,0,20,20,20,1,150,105,,,,,,,,
,,5edc60da1f4a2392b9f843ad,65af5546dc8991f4776b9ef6,2024-01-23_24h02.10.163,bars,2023.2.3,Win32,60.97560976,657b66ea316d21385b68909f,,,,,,,,,,,1420.5736,1421.5701,,,1422.0719,1422.3227,,128,128,,,,,,,,,,,,,,,,bars/032.png,bars/mask009.png,,,,,,,,,,,,3,1,,,,,,,2,4,3,4,,,,,,,,,,,1421.5701,1422.0718,1422.3227,1424.4824,space,2.1413,,1424.4824,3,72,1425.4843,1425.4843,1425.4849,,,,0,21,21,21,1,125,20,,,,,,,,
,,5edc60da1f4a2392b9f843ad,65af5546dc8991f4776b9ef6,2024-01-23_24h02.10.163,bars,2023.2.3,Win32,60.97560976,657b66ea316d21385b68909f,,,,,,,,,,,1425.4851,1426.4879,,,1426.9897,1427.2405,,99,-81,,,,,,,,,,,,,,,,bars/025.png,bars/mask002.png,,,,,,,,,,,,2,1,,,,,,,4,2,3,2,,,,,,,,,,,1426.4879,1426.9897,1427.2405,1431.4217,space,4.1587,,1431.4217,6,59,1432.4088,1432.4089,1432.4152,,,,0,22,22,22,1,105,40,,,,,,,,
,,5edc60da1f4a2392b9f843ad,65af5546dc8991f4776b9ef6,2024-01-23_24h02.10.163,bars,2023.2.3,Win32,60.97560976,657b66ea316d21385b68909f,,,,,,,,,,,1432.4152,1433.412,,,1433.9139,1434.1645,,138,-42,,,,,,,,,,,,,,,,bars/030.png,bars/mask003.png,,,,,,,,,,,,1,1,,,,,,,2,4,1,3,,,,,,,,,,,1433.412,1433.9139,1434.1645,1437.3258,space,3.1478,,1437.3259,2,73,1438.3293,1438.3293,1438.3361,,,,0,23,23,23,1,140,65,,,,,,,,
,,5edc60da1f4a2392b9f843ad,65af5546dc8991f4776b9ef6,2024-01-23_24h02.10.163,bars,2023.2.3,Win32,60.97560976,657b66ea316d21385b68909f,,,,,,,,,,,1438.3363,1439.3331,,,1439.8349,1440.0855,,38,38,,,,,,,,,,,,,,,,bars/016.png,bars/mask003.png,,,,,,,,,,,,0,1,,,,,,,0,2,0,3,,,,,,,,,,,1439.3332,1439.8349,1440.0855,1442.3284,space,2.2246,,1442.3284,2,53,1443.3303,1443.3303,1443.3309,,,,0,24,24,24,1,40,165,,,,,,,,
,,5edc60da1f4a2392b9f843ad,65af5546dc8991f4776b9ef6,2024-01-23_24h02.10.163,bars,2023.2.3,Win32,60.97560976,657b66ea316d21385b68909f,,,,,,,,,,,1443.3311,1444.3338,,,1444.8356,1445.0866,,77,77,,,,,,,,,,,,,,,,bars/029.png,bars/mask003.png,,,,,,,,,,,,2,1,,,,,,,2,0,4,0,,,,,,,,,,,1444.3338,1444.8356,1445.0866,1447.831,space,2.7263,,1447.8311,13,32,1448.8334,1448.8334,1448.8402,,,,0,25,25,25,1,90,45,,,,,,,,
,,5edc60da1f4a2392b9f843ad,65af5546dc8991f4776b9ef6,2024-01-23_24h02.10.163,bars,2023.2.3,Win32,60.97560976,657b66ea316d21385b68909f,,,,,,,,,,,1448.8403,1449.8367,,,1450.3387,1450.5907,,143,143,,,,,,,,,,,,,,,,bars/021.png,bars/mask009.png,,,,,,,,,,,,1,1,,,,,,,0,0,1,1,,,,,,,,,,,1449.8367,1450.3386,1450.5907,1454.2524,space,3.6442,,1454.2525,12,73,1455.2558,1455.2559,1455.262,,,,0,26,26,26,1,155,70,,,,,,,,
,,5edc60da1f4a2392b9f843ad,65af5546dc8991f4776b9ef6,2024-01-23_24h02.10.163,bars,2023.2.3,Win32,60.97560976,657b66ea316d21385b68909f,,,,,,,,,,,1455.2622,1456.2593,,,1456.7612,1457.012,,29,209,,,,,,,,,,,,,,,,bars/009.png,bars/mask002.png,,,,,,,,,,,,2,1,,,,,,,2,0,3,0,,,,,,,,,,,1456.2593,1456.7612,1457.0121,1460.4577,space,3.4149,,1460.4577,14,76,1461.4613,1461.4613,1461.4674,,,,0,27,27,27,1,15,105,,,,,,,,
,,5edc60da1f4a2392b9f843ad,65af5546dc8991f4776b9ef6,2024-01-23_24h02.10.163,bars,2023.2.3,Win32,60.97560976,657b66ea316d21385b68909f,,,,,,,,,,,1461.4676,1462.4645,,,1462.9663,1463.2172,,20,200,,,,,,,,,,,,,,,,bars/003.png,bars/mask004.png,,,,,,,,,,,,0,1,,,,,,,0,2,0,2,,,,,,,,,,,1462.4646,1462.9663,1463.2173,1465.3095,space,2.0743,,1465.3095,5,60,1466.3118,1466.3118,1466.318,,,,0,28,28,28,1,25,140,,,,,,,,
,,5edc60da1f4a2392b9f843ad,65af5546dc8991f4776b9ef6,2024-01-23_24h02.10.163,bars,2023.2.3,Win32,60.97560976,657b66ea316d21385b68909f,,,,,,,,,,,1466.3181,1467.315,,,1467.8168,1468.068,,14,194,,,,,,,,,,,,,,,,bars/007.png,bars/mask003.png,,,,,,,,,,,,0,1,,,,,,,0,0,0,0,,,,,,,,,,,1467.315,1467.8168,1468.068,1472.7513,space,4.6565,,1472.7513,19,41,1473.7544,1473.7544,1473.7612,,,,0,29,29,29,1,175,55,,,,,,,,
,,5edc60da1f4a2392b9f843ad,65af5546dc8991f4776b9ef6,2024-01-23_24h02.10.163,bars,2023.2.3,Win32,60.97560976,657b66ea316d21385b68909f,,,,,,,,,,,1473.7613,1474.7583,,,1475.261,1475.5111,,166,166,,,,,,,,,,,,,,,,bars/036.png,bars/mask009.png,,,,,,,,,,,,0,1,,,,,,,0,0,1,0,,,,,,,,,,,1474.7583,1475.261,1475.5111,1477.0175,space,1.5048,,1477.0175,21,34,1478.0198,1478.02,1478.0268,,,,0,30,30,30,1,145,20,,,,,,,,
,,5edc60da1f4a2392b9f843ad,65af5546dc8991f4776b9ef6,2024-01-23_24h02.10.163,bars,2023.2.3,Win32,60.97560976,657b66ea316d21385b68909f,,,,,,,,,,,1478.027,1479.0234,,,1479.525,1479.7757,,154,154,,,,,,,,,,,,,,,,bars/018.png,bars/mask004.png,,,,,,,,,,,,2,1,,,,,,,2,0,2,2,,,,,,,,,,,1479.0234,1479.5249,1479.7757,1483.6242,space,3.8303,,1483.6242,4,64,1484.6262,1484.6262,1484.6323,,,,0,31,31,31,1,150,90,,,,,,,,
,,5edc60da1f4a2392b9f843ad,65af5546dc8991f4776b9ef6,2024-01-23_24h02.10.163,bars,2023.2.3,Win32,60.97560976,657b66ea316d21385b68909f,,,,,,,,,,,1484.6325,1485.6301,,,1486.1319,1486.3828,,32,212,,,,,,,,,,,,,,,,bars/033.png,bars/mask000.png,,,,,,,,,,,,3,1,,,,,,,4,2,4,1,,,,,,,,,,,1485.6302,1486.1319,1486.3828,1491.1326,space,4.7222,,1491.1327,7,57,1492.136,1492.136,1492.1421,,,,0,32,32,32,1,25,155,,,,,,,,
,,5edc60da1f4a2392b9f843ad,65af5546dc8991f4776b9ef6,2024-01-23_24h02.10.163,bars,2023.2.3,Win32,60.97560976,657b66ea316d21385b68909f,,,,,,,,,,,1492.1422,1493.1398,,,1493.6417,1493.8924,,143,143,,,,,,,,,,,,,,,,bars/035.png,bars/mask003.png,,,,,,,,,,,,0,1,,,,,,,6,4,7,4,,,,,,,,,,,1493.1398,1493.6417,1493.8924,1496.2005,space,2.2971,,1496.2005,32,83,1497.204,1497.204,1497.2103,,,,0,33,33,33,1,175,60,,,,,,,,
,,5edc60da1f4a2392b9f843ad,65af5546dc8991f4776b9ef6,2024-01-23_24h02.10.163,bars,2023.2.3,Win32,60.97560976,657b66ea316d21385b68909f,,,,,,,,,,,1497.2105,1498.2075,,,1498.7096,1498.9605,,38,38,,,,,,,,,,,,,,,,bars/043.png,bars/mask000.png,,,,,,,,,,,,6,1,,,,,,,8,2,8,2,,,,,,,,,,,1498.2075,1498.7096,1498.9605,1501.0344,space,2.0605,,1501.0345,8,88,1502.038,1502.038,1502.0443,,,,0,34,34,34,1,30,130,,,,,,,,
,,5edc60da1f4a2392b9f843ad,65af5546dc8991f4776b9ef6,2024-01-23_24h02.10.163,bars,2023.2.3,Win32,60.97560976,657b66ea316d21385b68909f,,,,,,,,,,,1502.0443,1503.0415,,,1503.543,1503.7939,,159,-21,,,,,,,,,,,,,,,,bars/028.png,bars/mask001.png,,,,,,,,,,,,0,2,,,,,,,10,0,10,0,,,,,,,,,,,1503.0416,1503.543,1503.794,1506.905,space,3.0954,,1506.905,66,39,1507.9084,1507.9084,1507.9159,,,,0,35,35,35,1,45,120,,,,,,,,
,,5edc60da1f4a2392b9f843ad,65af5546dc8991f4776b9ef6,2024-01-23_24h02.10.163,bars,2023.2.3,Win32,60.97560976,657b66ea316d21385b68909f,,,,,,,,,,,1507.916,1508.912,,,1509.4139,1509.665,,19,199,,,,,,,,,,,,,,,,bars/047.png,bars/mask005.png,,,,,,,,,,,,8,1,,,,,,,8,0,9,0,,,,,,,,,,,1508.912,1509.4139,1509.665,1512.4254,space,2.7524,,1512.4254,4,51,1513.4283,1513.4283,1513.435,,,,0,36,36,36,1,15,70,,,,,,,,
,,5edc60da1f4a2392b9f843ad,65af5546dc8991f4776b9ef6,2024-01-23_24h02.10.163,bars,2023.2.3,Win32,60.97560976,657b66ea316d21385b68909f,,,,,,,,,,,1513.4351,1514.4314,,,1514.9332,1515.1842,,117,117,,,,,,,,,,,,,,,,bars/017.png,bars/mask001.png,,,,,,,,,,,,1,1,,,,,,,10,2,9,3,,,,,,,,,,,1514.4314,1514.9332,1515.1842,1517.961,space,2.7602,,1517.9611,28,72,1518.9644,1518.9645,1518.971,,,,0,37,37,37,1,145,45,,,,,,,,
,,5edc60da1f4a2392b9f843ad,65af5546dc8991f4776b9ef6,2024-01-23_24h02.10.163,bars,2023.2.3,Win32,60.97560976,657b66ea316d21385b68909f,,,,,,,,,,,1518.9711,1519.9681,,,1520.4699,1520.7207,,111,111,,,,,,,,,,,,,,,,bars/002.png,bars/mask003.png,,,,,,,,,,,,3,1,,,,,,,8,0,9,0,,,,,,,,,,,1519.9681,1520.4698,1520.7207,1521.6742,space,0.9496,,1521.6743,19,26,1522.6773,1522.6773,1522.6778,,,,0,38,38,38,1,130,85,,,,,,,,
,,5edc60da1f4a2392b9f843ad,65af5546dc8991f4776b9ef6,2024-01-23_24h02.10.163,bars,2023.2.3,Win32,60.97560976,657b66ea316d21385b68909f,,,,,,,,,,,1522.678,1523.6808,,,1524.1829,1524.4338,,147,147,,,,,,,,,,,,,,,,bars/042.png,bars/mask006.png,,,,,,,,,,,,9,1,,,,,,,10,0,10,0,,,,,,,,,,,1523.6809,1524.1828,1524.4338,1525.6716,space,1.2216,,1525.6716,2,72,1526.6751,1526.6751,1526.6757,,,,0,39,39,39,1,145,75,,,,,,,,
,,5edc60da1f4a2392b9f843ad,65af5546dc8991f4776b9ef6,2024-01-23_24h02.10.163,bars,2023.2.3,Win32,60.97560976,657b66ea316d21385b68909f,,,,,,,,,,,1526.6759,1527.6785,,,1528.1801,1528.4322,,89,-91,,,,,,,,,,,,,,,,bars/015.png,bars/mask005.png,,,,,,,,,,,,3,1,,,,,,,10,0,10,0,,,,,,,,,,,1527.6786,1528.1801,1528.4323,1532.5455,space,4.1091,,1532.5455,21,71,1533.5495,1533.5495,1533.5563,,,,0,40,40,40,1,110,160,,,,,,,,
,,5edc60da1f4a2392b9f843ad,65af5546dc8991f4776b9ef6,2024-01-23_24h02.10.163,bars,2023.2.3,Win32,60.97560976,657b66ea316d21385b68909f,,,,,,,,,,,1533.5565,1534.5529,,,1535.0546,1535.3053,,165,165,,,,,,,,,,,,,,,,bars/018.png,bars/mask004.png,,,,,,,,,,,,3,1,,,,,,,8,0,6,0,,,,,,,,,,,1534.5529,1535.0546,1535.3053,1539.2359,space,3.9142,,1539.2359,15,75,1540.2392,1540.2393,1540.2453,,,,0,41,41,41,1,150,90,,,,,,,,
,,5edc60da1f4a2392b9f843ad,65af5546dc8991f4776b9ef6,2024-01-23_24h02.10.163,bars,2023.2.3,Win32,60.97560976,657b66ea316d21385b68909f,,,,,,,,,,,1540.2455,1541.2428,,,1541.745,1541.9955,,30,210,,,,,,,,,,,,,,,,bars/023.png,bars/mask005.png,,,,,,,,,,,,7,1,,,,,,,10,2,10,3,,,,,,,,,,,1541.2428,1541.745,1541.9955,1545.1906,space,3.1888,,1545.1907,10,85,1546.194,1546.194,1546.2001,,,,0,42,42,42,1,20,115,,,,,,,,
,,5edc60da1f4a2392b9f843ad,65af5546dc8991f4776b9ef6,2024-01-23_24h02.10.163,bars,2023.2.3,Win32,60.97560976,657b66ea316d21385b68909f,,,,,,,,,,,1546.2002,1547.1972,,,1547.6995,1547.9503,,41,221,,,,,,,,,,,,,,,,bars/004.png,bars/mask008.png,,,,,,,,,,,,4,1,,,,,,,8,4,9,4,,,,,,,,,,,1547.1972,1547.6995,1547.9503,1552.1315,space,4.1641,,1552.1315,16,84,1553.135,1553.135,1553.1418,,,,0,43,43,43,1,25,125,,,,,,,,
,,5edc60da1f4a2392b9f843ad,65af5546dc8991f4776b9ef6,2024-01-23_24h02.10.163,bars,2023.2.3,Win32,60.97560976,657b66ea316d21385b68909f,,,,,,,,,,,1553.142,1554.1383,,,1554.6402,1554.8915,,114,114,,,,,,,,,,,,,,,,bars/031.png,bars/mask004.png,,,,,,,,,,,,7,1,,,,,,,10,2,9,1,,,,,,,,,,,1554.1384,1554.6402,1554.8915,1559.1234,space,4.2253,,1559.1234,6,79,1560.1263,1560.1264,1560.1327,,,,0,44,44,44,1,120,35,,,,,,,,
,,5edc60da1f4a2392b9f843ad,65af5546dc8991f4776b9ef6,2024-01-23_24h02.10.163,bars,2023.2.3,Win32,60.97560976,657b66ea316d21385b68909f,,,,,,,,,,,1560.1328,1561.1303,,,1561.6321,1561.883,,115,115,,,,,,,,,,,,,,,,bars/032.png,bars/mask003.png,,,,,,,,,,,,5,1,,,,,,,8,0,8,0,,,,,,,,,,,1561.1303,1561.6321,1561.883,1565.2279,space,3.3319,,1565.2279,10,85,1566.2317,1566.2317,1566.2378,,,,0,45,45,45,1,125,20,,,,,,,,
,,5edc60da1f4a2392b9f843ad,65af5546dc8991f4776b9ef6,2024-01-23_24h02.10.163,bars,2023.2.3,Win32,60.97560976,657b66ea316d21385b68909f,,,,,,,,,,,1566.2379,1567.2349,,,1567.7367,1567.9889,,119,119,,,,,,,,,,,,,,,,bars/031.png,bars/mask005.png,,,,,,,,,,,,8,1,,,,,,,6,0,8,1,,,,,,,,,,,1567.2349,1567.7366,1567.989,1570.5468,space,2.5444,,1570.5468,1,84,1571.5503,1571.5503,1571.5565,,,,0,46,46,46,1,120,35,,,,,,,,
,,5edc60da1f4a2392b9f843ad,65af5546dc8991f4776b9ef6,2024-01-23_24h02.10.163,bars,2023.2.3,Win32,60.97560976,657b66ea316d21385b68909f,,,,,,,,,,,1571.5566,1572.5535,,,1573.0555,1573.3062,,30,30,,,,,,,,,,,,,,,,bars/003.png,bars/mask006.png,,,,,,,,,,,,6,1,,,,,,,8,0,7,0,,,,,,,,,,,1572.5536,1573.0554,1573.3062,1575.18,space,1.8567,,1575.18,5,70,1576.1831,1576.1831,1576.1897,,,,0,47,47,47,1,25,140,,,,,,,,
,,5edc60da1f4a2392b9f843ad,65af5546dc8991f4776b9ef6,2024-01-23_24h02.10.163,bars,2023.2.3,Win32,60.97560976,657b66ea316d21385b68909f,,,,,,,,,,,1576.1898,1577.1867,,,1577.6887,1577.9393,,118,118,,,,,,,,,,,,,,,,bars/040.png,bars/mask000.png,,,,,,,,,,,,2,1,,,,,,,6,2,6,3,,,,,,,,,,,1577.1867,1577.6887,1577.9393,1580.3651,space,2.4097,,1580.3651,22,67,1581.3686,1581.3686,1581.3752,,,,0,48,48,48,1,140,5,,,,,,,,
,,5edc60da1f4a2392b9f843ad,65af5546dc8991f4776b9ef6,2024-01-23_24h02.10.163,bars,2023.2.3,Win32,60.97560976,657b66ea316d21385b68909f,,,,,,,,,,,1581.3753,1582.3716,,,1582.8734,1583.1246,,26,26,,,,,,,,,,,,,,,,bars/005.png,bars/mask000.png,,,,,,,,,,,,2,1,,,,,,,4,4,4,3,,,,,,,,,,,1582.3716,1582.8733,1583.1246,1584.5129,space,1.3865,,1584.5129,16,66,1585.5161,1585.5161,1585.5167,,,,0,49,49,49,1,10,140,,,,,,,,
,,5edc60da1f4a2392b9f843ad,65af5546dc8991f4776b9ef6,2024-01-23_24h02.10.163,bars,2023.2.3,Win32,60.97560976,657b66ea316d21385b68909f,,,,,,,,,,,,,,,,,,,,,,,,,,,,,,,,,,,,,,,,,,,,,,,,,,,,,,,,,,,,,,,,,,,,,,,,,,,,,,,,,,,,,,,,,,,,,1585.5167,1653.8002,0,2,2,3,1,sequence_tables/blk019.csv
,,5edc60da1f4a2392b9f843ad,65af5546dc8991f4776b9ef6,2024-01-23_24h02.10.163,bars,2023.2.3,Win32,60.97560976,657b66ea316d21385b68909f,,,,,,,,,,,1657.9929,1658.9932,,,1659.495,1659.7457,,40,40,,,,,,,,,,,,,,,,bars/004.png,bars/mask002.png,,,,,,,,,,,,4,1,,,,,,,8,4,8,5,,,,,,1653.8098,1657.9897,space,4.1601,,1658.9932,1659.495,1659.7458,1662.6572,space,2.9095,,1662.6573,15,85,1663.6603,1663.6604,1663.6663,,,,0,0,0,0,1,25,125,,,,,,,,
,,5edc60da1f4a2392b9f843ad,65af5546dc8991f4776b9ef6,2024-01-23_24h02.10.163,bars,2023.2.3,Win32,60.97560976,657b66ea316d21385b68909f,,,,,,,,,,,1663.6665,1664.6639,,,1665.1657,1665.4165,,87,87,,,,,,,,,,,,,,,,bars/013.png,bars/mask008.png,,,,,,,,,,,,6,1,,,,,,,10,6,10,8,,,,,,,,,,,1664.6639,1665.1657,1665.4166,1666.8557,space,1.4228,,1666.8558,12,77,1667.8582,1667.8582,1667.8587,,,,0,1,1,1,1,75,10,,,,,,,,
,,5edc60da1f4a2392b9f843ad,65af5546dc8991f4776b9ef6,2024-01-23_24h02.10.163,bars,2023.2.3,Win32,60.97560976,657b66ea316d21385b68909f,,,,,,,,,,,1667.8588,1668.8617,,,1669.3636,1669.6146,,120,120,,,,,,,,,,,,,,,,bars/015.png,bars/mask009.png,,,,,,,,,,,,7,1,,,,,,,10,4,10,5,,,,,,,,,,,1668.8618,1669.3636,1669.6146,1672.8583,space,3.2214,,1672.8583,10,40,1673.8618,1673.8619,1673.8681,,,,0,2,2,2,1,110,160,,,,,,,,
,,5edc60da1f4a2392b9f843ad,65af5546dc8991f4776b9ef6,2024-01-23_24h02.10.163,bars,2023.2.3,Win32,60.97560976,657b66ea316d21385b68909f,,,,,,,,,,,1673.8682,1674.8655,,,1675.3668,1675.6177,,106,106,,,,,,,,,,,,,,,,bars/024.png,bars/mask001.png,,,,,,,,,,,,4,1,,,,,,,8,6,8,5,,,,,,,,,,,1674.8655,1675.3668,1675.6177,1676.7217,space,1.0996,,1676.7217,14,64,1677.7253,1677.7253,1677.7261,,,,0,3,3,3,1,120,170,,,,,,,,
,,5edc60da1f4a2392b9f843ad,65af5546dc8991f4776b9ef6,2024-01-23_24h02.10.163,bars,2023.2.3,Win32,60.97560976,657b66ea316d21385b68909f,,,,,,,,,,,1677.7263,1678.729,,,1679.2305,1679.4813,,134,134,,,,,,,,,,,,,,,,bars/002.png,bars/mask003.png,,,,,,,,,,,,9,1,,,,,,,10,8,10,9,,,,,,,,,,,1678.7291,1679.2304,1679.4814,1681.541,space,2.0415,,1681.541,4,49,1682.5421,1682.5422,1682.5487,,,,0,4,4,4,1,130,85,,,,,,,,
,,5edc60da1f4a2392b9f843ad,65af5546dc8991f4776b9ef6,2024-01-23_24h02.10.163,bars,2023.2.3,Win32,60.97560976,657b66ea316d21385b68909f,,,,,,,,,,,1682.5488,1683.5457,,,1684.0475,1684.2984,,101,101,,,,,,,,,,,,,,,,bars/025.png,bars/mask005.png,,,,,,,,,,,,7,1,,,,,,,8,10,8,10,,,,,,,,,,,1683.5457,1684.0475,1684.2984,1686.4081,space,2.1078,,1686.4081,4,61,1687.4094,1687.4094,1687.4101,,,,0,5,5,5,1,105,40,,,,,,,,
,,5edc60da1f4a2392b9f843ad,65af5546dc8991f4776b9ef6,2024-01-23_24h02.10.163,bars,2023.2.3,Win32,60.97560976,657b66ea316d21385b68909f,,,,,,,,,,,1687.4103,1688.4133,,,1688.9149,1689.1655,,146,146,,,,,,,,,,,,,,,,bars/007.png,bars/mask002.png,,,,,,,,,,,,0,1,,,,,,,10,10,10,10,,,,,,,,,,,1688.4133,1688.9149,1689.1655,1690.9244,space,1.7567,,1690.9244,29,89,1691.9253,1691.9253,1691.926,,,,0,6,6,6,1,175,55,,,,,,,,
,,5edc60da1f4a2392b9f843ad,65af5546dc8991f4776b9ef6,2024-01-23_24h02.10.163,bars,2023.2.3,Win32,60.97560976,657b66ea316d21385b68909f,,,,,,,,,,,1691.9261,1692.9302,,,1693.431,1693.6818,,24,204,,,,,,,,,,,,,,,,bars/016.png,bars/mask007.png,,,,,,,,,,,,3,1,,,,,,,8,10,7,10,,,,,,,,,,,1692.9302,1693.431,1693.6818,1695.823,space,2.1259,,1695.823,16,39,1696.8272,1696.8272,1696.8336,,,,0,7,7,7,1,40,165,,,,,,,,
,,5edc60da1f4a2392b9f843ad,65af5546dc8991f4776b9ef6,2024-01-23_24h02.10.163,bars,2023.2.3,Win32,60.97560976,657b66ea316d21385b68909f,,,,,,,,,,,1696.8337,1697.8295,,,1698.3318,1698.5823,,23,203,,,,,,,,,,,,,,,,bars/018.png,bars/mask008.png,,,,,,,,,,,,0,1,,,,,,,6,10,6,10,,,,,,,,,,,1697.8295,1698.3318,1698.5823,1701.8127,space,3.2121,,1701.8128,53,67,1702.8152,1702.8152,1702.8216,,,,0,8,8,8,1,150,90,,,,,,,,
,,5edc60da1f4a2392b9f843ad,65af5546dc8991f4776b9ef6,2024-01-23_24h02.10.163,bars,2023.2.3,Win32,60.97560976,657b66ea316d21385b68909f,,,,,,,,,,,1702.8217,1703.8174,,,1704.3191,1704.57,,43,43,,,,,,,,,,,,,,,,bars/019.png,bars/mask003.png,,,,,,,,,,,,7,1,,,,,,,8,8,8,8,,,,,,,,,,,1703.8174,1704.3191,1704.57,1706.7113,space,2.1275,,1706.7114,2,62,1707.7145,1707.7145,1707.7151,,,,0,9,9,9,1,45,105,,,,,,,,
,,5edc60da1f4a2392b9f843ad,65af5546dc8991f4776b9ef6,2024-01-23_24h02.10.163,bars,2023.2.3,Win32,60.97560976,657b66ea316d21385b68909f,,,,,,,,,,,1707.7153,1708.718,,,1709.22,1709.4706,,89,89,,,,,,,,,,,,,,,,bars/024.png,bars/mask000.png,,,,,,,,,,,,0,1,,,,,,,6,10,4,10,,,,,,,,,,,1708.718,1709.22,1709.4706,1711.7313,space,2.2586,,1711.7313,31,81,1712.7321,1712.7321,1712.739,,,,0,10,10,10,1,120,170,,,,,,,,
,,5edc60da1f4a2392b9f843ad,65af5546dc8991f4776b9ef6,2024-01-23_24h02.10.163,bars,2023.2.3,Win32,60.97560976,657b66ea316d21385b68909f,,,,,,,,,,,1712.7392,1713.736,,,1714.2374,1714.4884,,100,100,,,,,,,,,,,,,,,,bars/020.png,bars/mask005.png,,,,,,,,,,,,2,1,,,,,,,4,8,3,10,,,,,,,,,,,1713.7361,1714.2374,1714.4884,1721.0286,space,6.5346,,1721.0286,15,70,1722.0329,1722.0329,1722.0401,,,,0,11,11,11,1,115,170,,,,,,,,
,,5edc60da1f4a2392b9f843ad,65af5546dc8991f4776b9ef6,2024-01-23_24h02.10.163,bars,2023.2.3,Win32,60.97560976,657b66ea316d21385b68909f,,,,,,,,,,,1722.0402,1723.0354,,,1723.537,1723.7878,,174,174,,,,,,,,,,,,,,,,bars/007.png,bars/mask006.png,,,,,,,,,,,,6,1,,,,,,,6,6,6,5,,,,,,,,,,,1723.0354,1723.537,1723.7878,1729.0417,space,5.2354,,1729.0418,1,61,1730.0433,1730.0433,1730.0513,,,,0,12,12,12,1,175,55,,,,,,,,
,,5edc60da1f4a2392b9f843ad,65af5546dc8991f4776b9ef6,2024-01-23_24h02.10.163,bars,2023.2.3,Win32,60.97560976,657b66ea316d21385b68909f,,,,,,,,,,,1730.0515,1731.0469,,,1731.5487,1731.7999,,148,-32,,,,,,,,,,,,,,,,bars/011.png,bars/mask006.png,,,,,,,,,,,,4,1,,,,,,,8,8,7,7,,,,,,,,,,,1731.0469,1731.5487,1731.8,1748.7097,space,16.8863,,1748.7098,12,63,1749.7131,1749.7131,1749.7195,,,,0,13,13,13,1,160,85,,,,,,,,
,,5edc60da1f4a2392b9f843ad,65af5546dc8991f4776b9ef6,2024-01-23_24h02.10.163,bars,2023.2.3,Win32,60.97560976,657b66ea316d21385b68909f,,,,,,,,,,,1749.7197,1750.7163,,,1751.2184,1751.4689,,154,-26,,,,,,,,,,,,,,,,bars/011.png,bars/mask007.png,,,,,,,,,,,,5,1,,,,,,,6,10,6,10,,,,,,,,,,,1750.7163,1751.2183,1751.4689,1755.383,space,3.9109,,1755.383,6,69,1756.3863,1756.3863,1756.3924,,,,0,14,14,14,1,160,85,,,,,,,,
,,5edc60da1f4a2392b9f843ad,65af5546dc8991f4776b9ef6,2024-01-23_24h02.10.163,bars,2023.2.3,Win32,60.97560976,657b66ea316d21385b68909f,,,,,,,,,,,1756.3926,1757.3898,,,1757.8917,1758.1426,,91,91,,,,,,,,,,,,,,,,bars/029.png,bars/mask000.png,,,,,,,,,,,,5,1,,,,,,,4,10,5,10,,,,,,,,,,,1757.3899,1757.8917,1758.1427,1760.5849,space,2.4276,,1760.585,1,46,1761.5883,1761.5883,1761.589,,,,0,15,15,15,1,90,45,,,,,,,,
,,5edc60da1f4a2392b9f843ad,65af5546dc8991f4776b9ef6,2024-01-23_24h02.10.163,bars,2023.2.3,Win32,60.97560976,657b66ea316d21385b68909f,,,,,,,,,,,1761.5892,1762.5919,,,1763.0934,1763.3446,,41,41,,,,,,,,,,,,,,,,bars/000.png,bars/mask003.png,,,,,,,,,,,,3,1,,,,,,,2,8,3,7,,,,,,,,,,,1762.5919,1763.0934,1763.3446,1764.768,space,1.4214,,1764.768,1,76,1765.7699,1765.77,1765.7762,,,,0,16,16,16,1,40,145,,,,,,,,
,,5edc60da1f4a2392b9f843ad,65af5546dc8991f4776b9ef6,2024-01-23_24h02.10.163,bars,2023.2.3,Win32,60.97560976,657b66ea316d21385b68909f,,,,,,,,,,,1765.7763,1766.7733,,,1767.2751,1767.5256,,27,27,,,,,,,,,,,,,,,,bars/023.png,bars/mask009.png,,,,,,,,,,,,3,1,,,,,,,4,6,4,7,,,,,,,,,,,1766.7733,1767.2751,1767.5256,1769.5331,space,1.9781,,1769.5331,7,88,1770.5217,1770.5217,1770.5276,,,,0,17,17,17,1,20,115,,,,,,,,
,,5edc60da1f4a2392b9f843ad,65af5546dc8991f4776b9ef6,2024-01-23_24h02.10.163,bars,2023.2.3,Win32,60.97560976,657b66ea316d21385b68909f,,,,,,,,,,,1770.5277,1771.5234,,,1772.025,1772.2758,,155,155,,,,,,,,,,,,,,,,bars/036.png,bars/mask006.png,,,,,,,,,,,,4,1,,,,,,,6,4,6,5,,,,,,,,,,,1771.5234,1772.025,1772.2758,1777.5449,space,5.261,,1777.5449,10,45,1778.548,1778.548,1778.5548,,,,0,18,18,18,1,145,20,,,,,,,,
,,5edc60da1f4a2392b9f843ad,65af5546dc8991f4776b9ef6,2024-01-23_24h02.10.163,bars,2023.2.3,Win32,60.97560976,657b66ea316d21385b68909f,,,,,,,,,,,1778.5549,1779.5516,,,1780.0532,1780.3041,,65,65,,,,,,,,,,,,,,,,bars/048.png,bars/mask006.png,,,,,,,,,,,,2,1,,,,,,,4,2,3,3,,,,,,,,,,,1779.5516,1780.0532,1780.3041,1784.168,space,3.8566,,1784.168,15,70,1785.1713,1785.1714,1785.1783,,,,0,19,19,19,1,50,175,,,,,,,,
,,5edc60da1f4a2392b9f843ad,65af5546dc8991f4776b9ef6,2024-01-23_24h02.10.163,bars,2023.2.3,Win32,60.97560976,657b66ea316d21385b68909f,,,,,,,,,,,1785.1785,1786.1749,,,1786.677,1786.9278,,145,145,,,,,,,,,,,,,,,,bars/021.png,bars/mask007.png,,,,,,,,,,,,1,1,,,,,,,2,0,1,0,,,,,,,,,,,1786.175,1786.677,1786.9278,1792.2134,space,5.2786,,1792.2134,10,75,1793.2164,1793.2165,1793.2232,,,,0,20,20,20,1,155,70,,,,,,,,
,,5edc60da1f4a2392b9f843ad,65af5546dc8991f4776b9ef6,2024-01-23_24h02.10.163,bars,2023.2.3,Win32,60.97560976,657b66ea316d21385b68909f,,,,,,,,,,,1793.2232,1794.2201,,,1794.7221,1794.9731,,131,131,,,,,,,,,,,,,,,,bars/002.png,bars/mask009.png,,,,,,,,,,,,5,1,,,,,,,4,0,5,0,,,,,,,,,,,1794.2201,1794.7221,1794.9731,1796.7981,space,1.8078,,1796.7982,1,46,1797.7996,1797.7996,1797.8058,,,,0,21,21,21,1,130,85,,,,,,,,
,,5edc60da1f4a2392b9f843ad,65af5546dc8991f4776b9ef6,2024-01-23_24h02.10.163,bars,2023.2.3,Win32,60.97560976,657b66ea316d21385b68909f,,,,,,,,,,,1797.806,1798.8032,,,1799.3059,1799.5554,,103,103,,,,,,,,,,,,,,,,bars/008.png,bars/mask005.png,,,,,,,,,,,,4,1,,,,,,,6,0,5,0,,,,,,,,,,,1798.8032,1799.3059,1799.5555,1801.4625,space,1.8805,,1801.4625,7,77,1802.4658,1802.4658,1802.472,,,,0,22,22,22,1,110,0,,,,,,,,
,,5edc60da1f4a2392b9f843ad,65af5546dc8991f4776b9ef6,2024-01-23_24h02.10.163,bars,2023.2.3,Win32,60.97560976,657b66ea316d21385b68909f,,,,,,,,,,,1802.472,1803.4696,,,1803.9712,1804.222,,175,175,,,,,,,,,,,,,,,,bars/049.png,bars/mask000.png,,,,,,,,,,,,4,1,,,,,,,8,0,8,0,,,,,,,,,,,1803.4696,1803.9712,1804.222,1805.1422,space,0.9023,,1805.1422,15,60,1806.1301,1806.1301,1806.1307,,,,0,23,23,23,1,160,115,,,,,,,,
,,5edc60da1f4a2392b9f843ad,65af5546dc8991f4776b9ef6,2024-01-23_24h02.10.163,bars,2023.2.3,Win32,60.97560976,657b66ea316d21385b68909f,,,,,,,,,,,1806.1309,1807.1325,,,1807.6344,1807.8853,,54,234,,,,,,,,,,,,,,,,bars/048.png,bars/mask004.png,,,,,,,,,,,,9,1,,,,,,,10,0,10,2,,,,,,,,,,,1807.1325,1807.6343,1807.8853,1811.4147,space,3.5159,,1811.4148,4,59,1812.4189,1812.419,1812.4252,,,,0,24,24,24,1,50,175,,,,,,,,
,,5edc60da1f4a2392b9f843ad,65af5546dc8991f4776b9ef6,2024-01-23_24h02.10.163,bars,2023.2.3,Win32,60.97560976,657b66ea316d21385b68909f,,,,,,,,,,,1812.4253,1813.4215,,,1813.923,1814.1739,,43,43,,,,,,,,,,,,,,,,bars/016.png,bars/mask007.png,,,,,,,,,,,,9,1,,,,,,,10,2,10,3,,,,,,,,,,,1813.4215,1813.923,1814.1739,1815.5141,space,1.3218,,1815.5141,3,58,1816.5165,1816.5165,1816.5171,,,,0,25,25,25,1,40,165,,,,,,,,
,,5edc60da1f4a2392b9f843ad,65af5546dc8991f4776b9ef6,2024-01-23_24h02.10.163,bars,2023.2.3,Win32,60.97560976,657b66ea316d21385b68909f,,,,,,,,,,,1816.5173,1817.5193,,,1818.0211,1818.2716,,99,99,,,,,,,,,,,,,,,,bars/025.png,bars/mask005.png,,,,,,,,,,,,6,1,,,,,,,8,4,7,3,,,,,,,,,,,1817.5193,1818.0211,1818.2716,1819.2084,space,0.9346,,1819.2084,6,59,1820.2121,1820.2121,1820.2128,,,,0,26,26,26,1,105,40,,,,,,,,
,,5edc60da1f4a2392b9f843ad,65af5546dc8991f4776b9ef6,2024-01-23_24h02.10.163,bars,2023.2.3,Win32,60.97560976,657b66ea316d21385b68909f,,,,,,,,,,,1820.213,1821.2155,,,1821.7171,1821.9683,,150,-30,,,,,,,,,,,,,,,,bars/049.png,bars/mask004.png,,,,,,,,,,,,5,1,,,,,,,6,2,7,2,,,,,,,,,,,1821.2155,1821.7171,1821.9684,1825.8179,space,3.8478,,1825.818,10,35,1826.8185,1826.8185,1826.8253,,,,0,27,27,27,1,160,115,,,,,,,,
,,5edc60da1f4a2392b9f843ad,65af5546dc8991f4776b9ef6,2024-01-23_24h02.10.163,bars,2023.2.3,Win32,60.97560976,657b66ea316d21385b68909f,,,,,,,,,,,1826.8255,1827.8226,,,1828.3242,1828.5747,,142,142,,,,,,,,,,,,,,,,bars/038.png,bars/mask005.png,,,,,,,,,,,,1,1,,,,,,,4,0,3,1,,,,,,,,,,,1827.8226,1828.3242,1828.5747,1831.3513,space,2.7678,,1831.3514,23,72,1832.355,1832.355,1832.3617,,,,0,28,28,28,1,165,70,,,,,,,,
,,5edc60da1f4a2392b9f843ad,65af5546dc8991f4776b9ef6,2024-01-23_24h02.10.163,bars,2023.2.3,Win32,60.97560976,657b66ea316d21385b68909f,,,,,,,,,,,1832.3618,1833.3582,,,1833.86,1834.1109,,94,94,,,,,,,,,,,,,,,,bars/020.png,bars/mask008.png,,,,,,,,,,,,2,1,,,,,,,6,2,6,1,,,,,,,,,,,1833.3582,1833.86,1834.1109,1836.0679,space,1.9324,,1836.068,21,76,1837.0558,1837.0558,1837.0564,,,,0,29,29,29,1,115,170,,,,,,,,
,,5edc60da1f4a2392b9f843ad,65af5546dc8991f4776b9ef6,2024-01-23_24h02.10.163,bars,2023.2.3,Win32,60.97560976,657b66ea316d21385b68909f,,,,,,,,,,,1837.0565,1838.0581,,,1838.5603,1838.8111,,41,221,,,,,,,,,,,,,,,,bars/003.png,bars/mask006.png,,,,,,,,,,,,1,1,,,,,,,4,0,2,1,,,,,,,,,,,1838.0582,1838.5603,1838.8111,1842.8945,space,4.0811,,1842.8945,16,81,1843.8954,1843.8954,1843.9022,,,,0,30,30,30,1,25,140,,,,,,,,
,,5edc60da1f4a2392b9f843ad,65af5546dc8991f4776b9ef6,2024-01-23_24h02.10.163,bars,2023.2.3,Win32,60.97560976,657b66ea316d21385b68909f,,,,,,,,,,,1843.9023,1844.8994,,,1845.4011,1845.652,,139,139,,,,,,,,,,,,,,,,bars/019.png,bars/mask005.png,,,,,,,,,,,,0,2,,,,,,,2,2,1,3,,,,,,,,,,,1844.8995,1845.4011,1845.652,1848.4118,space,2.7531,,1848.4119,86,34,1849.4153,1849.4153,1849.4224,,,,0,31,31,31,1,45,105,,,,,,,,
,,5edc60da1f4a2392b9f843ad,65af5546dc8991f4776b9ef6,2024-01-23_24h02.10.163,bars,2023.2.3,Win32,60.97560976,657b66ea316d21385b68909f,,,,,,,,,,,1849.4226,1850.4186,,,1850.9206,1851.1712,,116,116,,,,,,,,,,,,,,,,bars/032.png,bars/mask004.png,,,,,,,,,,,,2,1,,,,,,,4,4,3,4,,,,,,,,,,,1850.4186,1850.9206,1851.1712,1853.6137,space,2.4212,,1853.6137,9,84,1854.6168,1854.6168,1854.6235,,,,0,32,32,32,1,125,20,,,,,,,,
,,5edc60da1f4a2392b9f843ad,65af5546dc8991f4776b9ef6,2024-01-23_24h02.10.163,bars,2023.2.3,Win32,60.97560976,657b66ea316d21385b68909f,,,,,,,,,,,1854.6237,1855.6205,,,1856.122,1856.3729,,110,110,,,,,,,,,,,,,,,,bars/024.png,bars/mask005.png,,,,,,,,,,,,3,1,,,,,,,6,6,4,4,,,,,,,,,,,1855.6206,1856.122,1856.373,1857.2097,space,0.8106,,1857.2097,10,60,1858.213,1858.213,1858.2137,,,,0,33,33,33,1,120,170,,,,,,,,
,,5edc60da1f4a2392b9f843ad,65af5546dc8991f4776b9ef6,2024-01-23_24h02.10.163,bars,2023.2.3,Win32,60.97560976,657b66ea316d21385b68909f,,,,,,,,,,,1858.2139,1859.2163,,,1859.718,1859.9692,,105,105,,,,,,,,,,,,,,,,bars/020.png,bars/mask006.png,,,,,,,,,,,,3,1,,,,,,,4,8,4,8,,,,,,,,,,,1859.2164,1859.718,1859.9692,1860.7384,space,0.7571,,1860.7385,10,65,1861.7421,1861.7421,1861.7429,,,,0,34,34,34,1,115,170,,,,,,,,
,,5edc60da1f4a2392b9f843ad,65af5546dc8991f4776b9ef6,2024-01-23_24h02.10.163,bars,2023.2.3,Win32,60.97560976,657b66ea316d21385b68909f,,,,,,,,,,,1861.7431,1862.7457,,,1863.2473,1863.4985,,94,-86,,,,,,,,,,,,,,,,bars/013.png,bars/mask004.png,,,,,,,,,,,,0,1,,,,,,,2,10,1,9,,,,,,,,,,,1862.7457,1863.2473,1863.4986,1868.0666,space,4.5502,,1868.0667,19,84,1869.0681,1869.0681,1869.0744,,,,0,35,35,35,1,75,10,,,,,,,,
,,5edc60da1f4a2392b9f843ad,65af5546dc8991f4776b9ef6,2024-01-23_24h02.10.163,bars,2023.2.3,Win32,60.97560976,657b66ea316d21385b68909f,,,,,,,,,,,1869.0746,1870.0712,,,1870.573,1870.8243,,179,-1,,,,,,,,,,,,,,,,bars/033.png,bars/mask000.png,,,,,,,,,,,,2,2,,,,,,,4,8,3,8,,,,,,,,,,,1870.0713,1870.573,1870.8243,1872.664,space,1.8281,,1872.6641,26,24,1873.6673,1873.6673,1873.6687,,,,0,36,36,36,1,25,155,,,,,,,,
,,5edc60da1f4a2392b9f843ad,65af5546dc8991f4776b9ef6,2024-01-23_24h02.10.163,bars,2023.2.3,Win32,60.97560976,657b66ea316d21385b68909f,,,,,,,,,,,1873.6689,1874.672,,,1875.1731,1875.424,,150,-30,,,,,,,,,,,,,,,,bars/034.png,bars/mask009.png,,,,,,,,,,,,0,1,,,,,,,2,6,2,5,,,,,,,,,,,1874.6721,1875.1731,1875.424,1878.4699,space,3.0278,,1878.4699,25,85,1879.4714,1879.4714,1879.4782,,,,0,37,37,37,1,125,65,,,,,,,,
,,5edc60da1f4a2392b9f843ad,65af5546dc8991f4776b9ef6,2024-01-23_24h02.10.163,bars,2023.2.3,Win32,60.97560976,657b66ea316d21385b68909f,,,,,,,,,,,1879.4783,1880.475,,,1880.9764,1881.2273,,149,149,,,,,,,,,,,,,,,,bars/018.png,bars/mask002.png,,,,,,,,,,,,4,1,,,,,,,4,8,4,10,,,,,,,,,,,1880.4751,1880.9764,1881.2274,1882.5154,space,1.2823,,1882.5154,1,59,1883.5187,1883.5189,1883.5195,,,,0,38,38,38,1,150,90,,,,,,,,
,,5edc60da1f4a2392b9f843ad,65af5546dc8991f4776b9ef6,2024-01-23_24h02.10.163,bars,2023.2.3,Win32,60.97560976,657b66ea316d21385b68909f,,,,,,,,,,,1883.5197,1884.5227,,,1885.0245,1885.2749,,97,97,,,,,,,,,,,,,,,,bars/015.png,bars/mask002.png,,,,,,,,,,,,1,1,,,,,,,2,6,2,5,,,,,,,,,,,1884.5227,1885.0245,1885.275,1886.1786,space,0.8947,,1886.1787,13,63,1887.1829,1887.1829,1887.1836,,,,0,39,39,39,1,110,160,,,,,,,,
,,5edc60da1f4a2392b9f843ad,65af5546dc8991f4776b9ef6,2024-01-23_24h02.10.163,bars,2023.2.3,Win32,60.97560976,657b66ea316d21385b68909f,,,,,,,,,,,1887.1839,1888.1864,,,1888.6873,1888.9383,,154,-26,,,,,,,,,,,,,,,,bars/046.png,bars/mask001.png,,,,,,,,,,,,2,1,,,,,,,4,8,2,7,,,,,,,,,,,1888.1864,1888.6873,1888.9383,1892.536,space,3.5953,,1892.536,1,69,1893.539,1893.539,1893.5454,,,,0,40,40,40,1,155,85,,,,,,,,
,,5edc60da1f4a2392b9f843ad,65af5546dc8991f4776b9ef6,2024-01-23_24h02.10.163,bars,2023.2.3,Win32,60.97560976,657b66ea316d21385b68909f,,,,,,,,,,,1893.5456,1894.5423,,,1895.0431,1895.2937,,32,212,,,,,,,,,,,,,,,,bars/041.png,bars/mask004.png,,,,,,,,,,,,3,1,,,,,,,6,10,5,10,,,,,,,,,,,1894.5423,1895.0431,1895.2938,1899.1575,space,3.8616,,1899.1575,12,53,1900.1612,1900.1613,1900.1675,,,,0,41,41,41,1,20,85,,,,,,,,
,,5edc60da1f4a2392b9f843ad,65af5546dc8991f4776b9ef6,2024-01-23_24h02.10.163,bars,2023.2.3,Win32,60.97560976,657b66ea316d21385b68909f,,,,,,,,,,,1900.1676,1901.1648,,,1901.6662,1901.9171,,106,106,,,,,,,,,,,,,,,,bars/022.png,bars/mask004.png,,,,,,,,,,,,5,1,,,,,,,8,8,8,10,,,,,,,,,,,1901.1648,1901.6662,1901.9171,1906.1832,space,4.2602,,1906.1833,11,86,1907.1857,1907.1857,1907.1924,,,,0,42,42,42,1,95,20,,,,,,,,
,,5edc60da1f4a2392b9f843ad,65af5546dc8991f4776b9ef6,2024-01-23_24h02.10.163,bars,2023.2.3,Win32,60.97560976,657b66ea316d21385b68909f,,,,,,,,,,,1907.1925,1908.1896,,,1908.6909,1908.943,,142,-38,,,,,,,,,,,,,,,,bars/042.png,bars/mask002.png,,,,,,,,,,,,9,1,,,,,,,10,6,10,6,,,,,,,,,,,1908.1896,1908.6909,1908.943,1912.4562,space,3.5113,,1912.4562,3,67,1913.4579,1913.4579,1913.4641,,,,0,43,43,43,1,145,75,,,,,,,,
,,5edc60da1f4a2392b9f843ad,65af5546dc8991f4776b9ef6,2024-01-23_24h02.10.163,bars,2023.2.3,Win32,60.97560976,657b66ea316d21385b68909f,,,,,,,,,,,1913.4642,1914.4617,,,1914.9635,1915.2146,,111,111,,,,,,,,,,,,,,,,bars/015.png,bars/mask007.png,,,,,,,,,,,,10,1,,,,,,,8,4,10,5,,,,,,,,,,,1914.4617,1914.9634,1915.2146,1917.3718,space,2.1538,,1917.3718,1,49,1918.3767,1918.3768,1918.3829,,,,0,44,44,44,1,110,160,,,,,,,,
,,5edc60da1f4a2392b9f843ad,65af5546dc8991f4776b9ef6,2024-01-23_24h02.10.163,bars,2023.2.3,Win32,60.97560976,657b66ea316d21385b68909f,,,,,,,,,,,1918.383,1919.3791,,,1919.8805,1920.1314,,55,55,,,,,,,,,,,,,,,,bars/044.png,bars/mask007.png,,,,,,,,,,,,2,1,,,,,,,6,2,7,2,,,,,,,,,,,1919.3791,1919.8805,1920.1314,1923.711,space,3.5676,,1923.711,20,80,1924.7142,1924.7142,1924.7204,,,,0,45,45,45,1,75,155,,,,,,,,
,,5edc60da1f4a2392b9f843ad,65af5546dc8991f4776b9ef6,2024-01-23_24h02.10.163,bars,2023.2.3,Win32,60.97560976,657b66ea316d21385b68909f,,,,,,,,,,,1924.7205,1925.7181,,,1926.2208,1926.4714,,152,-28,,,,,,,,,,,,,,,,bars/037.png,bars/mask007.png,,,,,,,,,,,,5,1,,,,,,,4,0,5,0,,,,,,,,,,,1925.7181,1926.2208,1926.4714,1928.6469,space,2.173,,1928.6469,2,47,1929.6484,1929.6484,1929.6491,,,,0,46,46,46,1,150,105,,,,,,,,
,,5edc60da1f4a2392b9f843ad,65af5546dc8991f4776b9ef6,2024-01-23_24h02.10.163,bars,2023.2.3,Win32,60.97560976,657b66ea316d21385b68909f,,,,,,,,,,,1929.6493,1930.6519,,,1931.154,1931.4048,,64,64,,,,,,,,,,,,,,,,bars/044.png,bars/mask005.png,,,,,,,,,,,,1,1,,,,,,,2,2,2,2,,,,,,,,,,,1930.6519,1931.154,1931.4049,1933.6631,space,2.2489,,1933.6631,11,89,1934.6661,1934.6661,1934.673,,,,0,47,47,47,1,75,155,,,,,,,,
,,5edc60da1f4a2392b9f843ad,65af5546dc8991f4776b9ef6,2024-01-23_24h02.10.163,bars,2023.2.3,Win32,60.97560976,657b66ea316d21385b68909f,,,,,,,,,,,1934.6732,1935.67,,,1936.1718,1936.4224,,132,-48,,,,,,,,,,,,,,,,bars/017.png,bars/mask004.png,,,,,,,,,,,,1,1,,,,,,,0,4,1,5,,,,,,,,,,,1935.67,1936.1717,1936.4224,1939.3329,space,2.9078,,1939.333,13,87,1940.3361,1940.3361,1940.3428,,,,0,48,48,48,1,145,45,,,,,,,,
,,5edc60da1f4a2392b9f843ad,65af5546dc8991f4776b9ef6,2024-01-23_24h02.10.163,bars,2023.2.3,Win32,60.97560976,657b66ea316d21385b68909f,,,,,,,,,,,1940.3429,1941.34,,,1941.8418,1942.0927,,50,50,,,,,,,,,,,,,,,,bars/029.png,bars/mask004.png,,,,,,,,,,,,2,2,,,,,,,2,2,3,2,,,,,,,,,,,1941.34,1941.8418,1942.0927,1942.8451,space,0.7217,,1942.8451,40,5,1943.8489,1943.849,1943.8503,,,,0,49,49,49,1,90,45,,,,,,,,
,,5edc60da1f4a2392b9f843ad,65af5546dc8991f4776b9ef6,2024-01-23_24h02.10.163,bars,2023.2.3,Win32,60.97560976,657b66ea316d21385b68909f,,,,,,,,,,,,,,,,,,,,,,,,,,,,,,,,,,,,,,,,,,,,,,,,,,,,,,,,,,,,,,,,,,,,,,,,,,,,,,,,,,,,,,,,,,,,,1943.8504,2003.8438,0,3,3,2,1,sequence_tables/blk028.csv
,,5edc60da1f4a2392b9f843ad,65af5546dc8991f4776b9ef6,2024-01-23_24h02.10.163,bars,2023.2.3,Win32,60.97560976,657b66ea316d21385b68909f,,,,,,,,,,,2161.3434,2162.3369,,,2162.839,2163.0899,,68,68,,,,,,,,,,,,,,,,bars/029.png,bars/mask002.png,,,,,,,,,,,,1,1,,,,,,,2,3,5,3,,,,,,2003.8502,2161.3334,space,157.4688,,2162.3369,2162.839,2163.0899,2165.7156,space,2.5956,,2165.7156,22,23,2166.719,2166.719,2166.7264,,,,0,0,0,0,1,90,45,,,,,,,,
,,5edc60da1f4a2392b9f843ad,65af5546dc8991f4776b9ef6,2024-01-23_24h02.10.163,bars,2023.2.3,Win32,60.97560976,657b66ea316d21385b68909f,,,,,,,,,,,2166.7267,2167.7228,,,2168.2243,2168.4751,,36,36,,,,,,,,,,,,,,,,bars/023.png,bars/mask009.png,,,,,,,,,,,,1,1,,,,,,,4,1,3,1,,,,,,,,,,,2167.7229,2168.2243,2168.4752,2170.6831,space,2.1884,,2170.6831,16,79,2171.6877,2171.6877,2171.6937,,,,0,1,1,1,1,20,115,,,,,,,,
,,5edc60da1f4a2392b9f843ad,65af5546dc8991f4776b9ef6,2024-01-23_24h02.10.163,bars,2023.2.3,Win32,60.97560976,657b66ea316d21385b68909f,,,,,,,,,,,2171.6939,2172.6904,,,2173.1922,2173.4428,,130,130,,,,,,,,,,,,,,,,bars/031.png,bars/mask008.png,,,,,,,,,,,,3,1,,,,,,,6,0,5,0,,,,,,,,,,,2172.6904,2173.1922,2173.4429,2175.8698,space,2.409,,2175.8698,10,85,2176.8719,2176.8719,2176.8781,,,,0,2,2,2,1,120,35,,,,,,,,
,,5edc60da1f4a2392b9f843ad,65af5546dc8991f4776b9ef6,2024-01-23_24h02.10.163,bars,2023.2.3,Win32,60.97560976,657b66ea316d21385b68909f,,,,,,,,,,,2176.8782,2177.875,,,2178.3771,2178.628,,41,41,,,,,,,,,,,,,,,,bars/028.png,bars/mask008.png,,,,,,,,,,,,3,1,,,,,,,4,2,4,2,,,,,,,,,,,2177.875,2178.3771,2178.628,2179.6667,space,1.0207,,2179.6667,4,79,2180.6682,2180.6682,2180.6688,,,,0,3,3,3,1,45,120,,,,,,,,
,,5edc60da1f4a2392b9f843ad,65af5546dc8991f4776b9ef6,2024-01-23_24h02.10.163,bars,2023.2.3,Win32,60.97560976,657b66ea316d21385b68909f,,,,,,,,,,,2180.6689,2181.6721,,,2182.1737,2182.4255,,17,197,,,,,,,,,,,,,,,,bars/009.png,bars/mask005.png,,,,,,,,,,,,6,1,,,,,,,6,4,6,4,,,,,,,,,,,2181.6722,2182.1736,2182.4256,2186.5743,space,4.132,,2186.5743,2,88,2187.5759,2187.576,2187.5823,,,,0,4,4,4,1,15,105,,,,,,,,
,,5edc60da1f4a2392b9f843ad,65af5546dc8991f4776b9ef6,2024-01-23_24h02.10.163,bars,2023.2.3,Win32,60.97560976,657b66ea316d21385b68909f,,,,,,,,,,,2187.5824,2188.5798,,,2189.0817,2189.3325,,90,90,,,,,,,,,,,,,,,,bars/014.png,bars/mask001.png,,,,,,,,,,,,2,1,,,,,,,4,2,3,2,,,,,,,,,,,2188.5798,2189.0816,2189.3325,2192.5284,space,3.1779,,2192.5284,10,90,2193.5315,2193.5315,2193.5383,,,,0,5,5,5,1,80,0,,,,,,,,
,,5edc60da1f4a2392b9f843ad,65af5546dc8991f4776b9ef6,2024-01-23_24h02.10.163,bars,2023.2.3,Win32,60.97560976,657b66ea316d21385b68909f,,,,,,,,,,,2193.5385,2194.5339,,,2195.0356,2195.2865,,146,146,,,,,,,,,,,,,,,,bars/007.png,bars/mask004.png,,,,,,,,,,,,0,1,,,,,,,2,4,2,5,,,,,,,,,,,2194.5339,2195.0356,2195.2865,2197.513,space,2.225,,2197.5131,29,89,2198.515,2198.515,2198.5215,,,,0,6,6,6,1,175,55,,,,,,,,
,,5edc60da1f4a2392b9f843ad,65af5546dc8991f4776b9ef6,2024-01-23_24h02.10.163,bars,2023.2.3,Win32,60.97560976,657b66ea316d21385b68909f,,,,,,,,,,,2198.5216,2199.5185,,,2200.0203,2200.2711,,136,136,,,,,,,,,,,,,,,,bars/034.png,bars/mask002.png,,,,,,,,,,,,3,1,,,,,,,4,2,5,2,,,,,,,,,,,2199.5185,2200.0203,2200.2712,2202.5973,space,2.3086,,2202.5973,11,71,2203.5992,2203.5992,2203.6061,,,,0,7,7,7,1,125,65,,,,,,,,
,,5edc60da1f4a2392b9f843ad,65af5546dc8991f4776b9ef6,2024-01-23_24h02.10.163,bars,2023.2.3,Win32,60.97560976,657b66ea316d21385b68909f,,,,,,,,,,,2203.6062,2204.6028,,,2205.105,2205.3555,,29,29,,,,,,,,,,,,,,,,bars/004.png,bars/mask004.png,,,,,,,,,,,,2,1,,,,,,,2,4,2,6,,,,,,,,,,,2204.6028,2205.105,2205.3555,2209.9233,space,4.5499,,2209.9233,4,84,2210.9255,2210.9255,2210.9316,,,,0,8,8,8,1,25,125,,,,,,,,
,,5edc60da1f4a2392b9f843ad,65af5546dc8991f4776b9ef6,2024-01-23_24h02.10.163,bars,2023.2.3,Win32,60.97560976,657b66ea316d21385b68909f,,,,,,,,,,,2210.9317,2211.9289,,,2212.4309,2212.6818,,132,132,,,,,,,,,,,,,,,,bars/040.png,bars/mask005.png,,,,,,,,,,,,0,1,,,,,,,0,2,0,2,,,,,,,,,,,2211.929,2212.4309,2212.6818,2215.1903,space,2.4892,,2215.1904,8,53,2216.1937,2216.1937,2216.2,,,,0,9,9,9,1,140,5,,,,,,,,
,,5edc60da1f4a2392b9f843ad,65af5546dc8991f4776b9ef6,2024-01-23_24h02.10.163,bars,2023.2.3,Win32,60.97560976,657b66ea316d21385b68909f,,,,,,,,,,,2216.2001,2217.1973,,,2217.6994,2217.9501,,130,130,,,,,,,,,,,,,,,,bars/001.png,bars/mask004.png,,,,,,,,,,,,0,1,,,,,,,0,4,0,5,,,,,,,,,,,2217.1973,2217.6994,2217.9501,2219.9924,space,2.0243,,2219.9924,0,45,2220.9943,2220.9943,2220.9949,,,,0,10,10,10,1,130,85,,,,,,,,
,,5edc60da1f4a2392b9f843ad,65af5546dc8991f4776b9ef6,2024-01-23_24h02.10.163,bars,2023.2.3,Win32,60.97560976,657b66ea316d21385b68909f,,,,,,,,,,,2220.9951,2221.9975,,,2222.4997,2222.7506,,120,120,,,,,,,,,,,,,,,,bars/002.png,bars/mask008.png,,,,,,,,,,,,1,1,,,,,,,2,2,1,0,,,,,,,,,,,2221.9975,2222.4997,2222.7506,2225.5283,space,2.7601,,2225.5283,10,35,2226.5306,2226.5306,2226.5367,,,,0,11,11,11,1,130,85,,,,,,,,
,,5edc60da1f4a2392b9f843ad,65af5546dc8991f4776b9ef6,2024-01-23_24h02.10.163,bars,2023.2.3,Win32,60.97560976,657b66ea316d21385b68909f,,,,,,,,,,,2226.5369,2227.5337,,,2228.0355,2228.2865,,165,-15,,,,,,,,,,,,,,,,bars/037.png,bars/mask005.png,,,,,,,,,,,,3,1,,,,,,,4,4,5,5,,,,,,,,,,,2227.5337,2228.0355,2228.2865,2232.6854,space,4.367,,2232.6854,15,60,2233.6892,2233.6892,2233.6953,,,,0,12,12,12,1,150,105,,,,,,,,
